"Time (s)","Acceleration x (m/s^2)","Acceleration y (m/s^2)","Acceleration z (m/s^2)","Absolute acceleration (m/s^2)"
1.463813300E-2,2.165504545E-1,-2.518445849E-1,1.009472084E1,1.010018359E1
1.966730000E-2,1.591227055E-1,-1.609173268E-1,9.486345291E0,9.489044283E0
2.218193500E-2,1.256231815E-1,-1.609173268E-1,9.515059471E0,9.517249199E0
2.469657000E-2,7.298108935E-2,-1.226321608E-1,9.424132347E0,9.425212750E0
2.721115400E-2,4.905286431E-2,-6.041877344E-2,9.452845573E0,9.453165927E0
2.972573700E-2,5.982056726E-3,-9.870393574E-2,9.538987160E0,9.539499687E0
3.224032000E-2,-3.589233849E-3,-1.226321608E-1,9.629914284E0,9.630695751E0
3.475495600E-2,2.033899166E-2,-1.369891018E-1,9.731011391E0,9.731996834E0
3.726953900E-2,2.991028316E-2,-2.039881349E-1,9.826724052E0,9.828886579E0
3.978417500E-2,1.555334684E-2,-1.752742529E-1,9.898509026E0,9.900072924E0
4.163313300E-2,1.196411322E-3,-1.800599098E-1,9.970293999E0,9.971919846E0
4.414776800E-2,7.298108935E-2,-2.039881349E-1,9.984650612E0,9.987000813E0
4.666235200E-2,3.948157281E-2,-1.704886109E-1,9.994221687E0,9.995753713E0
4.917698700E-2,3.469592705E-2,-1.561316848E-1,9.984650612E0,9.985931542E0
5.169157000E-2,4.905286431E-2,-1.704886109E-1,9.960722923E0,9.962302631E0
5.420620600E-2,5.862415582E-2,-1.752742529E-1,9.932008743E0,9.933728179E0
5.672078900E-2,1.016949639E-1,-1.944168359E-1,9.879366875E0,9.881802954E0
5.923537200E-2,1.208375469E-1,-1.896311939E-1,9.826724052E0,9.829296379E0
6.174995600E-2,1.016949639E-1,-1.609173268E-1,9.774082184E0,9.775935699E0
6.426459100E-2,1.447657645E-1,-1.561316848E-1,9.788438797E0,9.790754226E0
6.677922700E-2,1.495514214E-1,-1.848455518E-1,9.807581902E0,9.810463611E0
6.929375800E-2,1.782652885E-1,-1.704886109E-1,9.845867157E0,9.848956541E0
7.117474700E-2,1.686939895E-1,-2.087737769E-1,9.812367439E0,9.816037842E0
7.368933100E-2,1.639083475E-1,-2.087737769E-1,9.821938515E0,9.825524343E0
7.620391400E-2,1.734796464E-1,-2.135594189E-1,9.888937950E0,9.892764861E0
7.871849700E-2,1.686939895E-1,-1.800599098E-1,9.936794281E0,9.939857133E0
8.123313300E-2,1.112662554E-1,-1.848455518E-1,9.970293999E0,9.972628063E0
8.374776800E-2,9.212367237E-2,-1.896311939E-1,9.979865074E0,9.982091648E0
8.626235200E-2,1.064806059E-1,-1.657029688E-1,9.994221687E0,9.996162400E0
8.877693500E-2,7.298108935E-2,-1.992024779E-1,9.970293999E0,9.972550842E0
9.129157000E-2,4.426721856E-2,-1.752742529E-1,9.984650612E0,9.986287022E0
9.380615400E-2,6.340979785E-2,-1.800599098E-1,9.960722923E0,9.962552059E0
9.632078900E-2,6.340979785E-2,-1.657029688E-1,9.965508461E0,9.967087697E0
9.883537200E-2,4.905286431E-2,-1.417747438E-1,9.965508461E0,9.966637605E0
1.007142790E-1,5.862415582E-2,-1.226321608E-1,9.941579819E0,9.942508976E0
1.032288620E-1,7.298108935E-2,-1.274178028E-1,9.898509026E0,9.899598096E0
1.057434450E-1,8.255238086E-2,-1.465603858E-1,9.941579819E0,9.943002773E0
1.082580290E-1,5.383851007E-2,-1.513460279E-1,9.908080101E0,9.909382195E0
1.107726640E-1,8.733802289E-2,-1.369891018E-1,9.970293999E0,9.971617540E0
1.132873000E-1,7.776673883E-2,-1.417747438E-1,9.946365356E0,9.947679707E0
1.158018830E-1,8.733802289E-2,-1.896311939E-1,9.932008743E0,9.934202816E0
1.183164660E-1,8.733802289E-2,-1.752742529E-1,9.941579819E0,9.943508349E0
1.208311020E-1,1.016949639E-1,-1.848455518E-1,9.955936432E0,9.958171518E0
1.233456850E-1,1.208375469E-1,-1.896311939E-1,9.975079536E0,9.977613616E0
1.258603200E-1,1.064806059E-1,-2.231307179E-1,9.975079536E0,9.978142973E0
1.283748520E-1,1.112662554E-1,-1.800599098E-1,9.936794281E0,9.939048362E0
1.302468830E-1,9.690931439E-2,-1.704886109E-1,9.941579819E0,9.943513819E0
1.327614660E-1,1.351944804E-1,-1.657029688E-1,9.898509026E0,9.900818954E0
1.352760500E-1,1.304088384E-1,-1.896311939E-1,9.903294563E0,9.905968386E0
1.377906850E-1,8.255238086E-2,-1.944168359E-1,9.941579819E0,9.943823314E0
1.403052680E-1,9.212367237E-2,-1.944168359E-1,9.908080101E0,9.910415529E0
1.428199040E-1,1.112662554E-1,-1.657029688E-1,9.879366875E0,9.881382874E0
1.453344870E-1,8.733802289E-2,-1.609173268E-1,9.888937950E0,9.890632745E0
1.478490700E-1,1.016949639E-1,-1.704886109E-1,9.826724052E0,9.828729004E0
1.503637060E-1,5.862415582E-2,-1.465603858E-1,9.802796364E0,9.804067181E0
1.528782890E-1,6.819544733E-2,-1.561316848E-1,9.865009308E0,9.866480445E0
1.553929250E-1,9.212367237E-2,-1.752742529E-1,9.826724052E0,9.828718810E0
1.579074560E-1,1.016949639E-1,-1.417747438E-1,9.831509590E0,9.833057651E0
1.597927680E-1,8.733802289E-2,-1.561316848E-1,9.821938515E0,9.823567642E0
1.623073520E-1,1.304088384E-1,-1.800599098E-1,9.831509590E0,9.834023025E0
1.648219350E-1,1.351944804E-1,-1.944168359E-1,9.831509590E0,9.834361000E0
1.673365700E-1,1.112662554E-1,-1.609173268E-1,9.841081619E0,9.843026059E0
1.698511540E-1,1.160518974E-1,-1.657029688E-1,9.850652695E0,9.852729775E0
1.723657890E-1,1.351944804E-1,-1.561316848E-1,9.812367439E0,9.814540713E0
1.748803200E-1,1.208375469E-1,-1.992024779E-1,9.845867157E0,9.848623427E0
1.773949560E-1,7.776673883E-2,-1.992024779E-1,9.841081619E0,9.843404733E0
1.799095910E-1,8.733802289E-2,-1.752742529E-1,9.836296082E0,9.838245250E0
1.824241750E-1,9.212367237E-2,-1.944168359E-1,9.836296082E0,9.838648550E0
1.849388100E-1,1.160518974E-1,-1.944168359E-1,9.865009308E0,9.867607339E0
1.874533930E-1,9.212367237E-2,-2.039881349E-1,9.855438232E0,9.857979544E0
1.893366220E-1,1.064806059E-1,-1.800599098E-1,9.874580383E0,9.876795909E0
1.918512060E-1,1.160518974E-1,-1.800599098E-1,9.884152412E0,9.886473513E0
1.943657890E-1,8.733802289E-2,-1.609173268E-1,9.879366875E0,9.881063311E0
1.968804250E-1,1.016949639E-1,-1.561316848E-1,9.841081619E0,9.842845443E0
1.993950080E-1,1.112662554E-1,-1.704886109E-1,9.845867157E0,9.847971701E0
2.019096430E-1,1.064806059E-1,-1.896311939E-1,9.831509590E0,9.833914731E0
2.044242270E-1,6.340979785E-2,-2.039881349E-1,9.850652695E0,9.852968612E0
2.069388100E-1,3.948157281E-2,-1.944168359E-1,9.826724052E0,9.828726383E0
2.094534450E-1,1.016949639E-1,-1.561316848E-1,9.831509590E0,9.833275130E0
2.119680290E-1,1.016949639E-1,-1.704886109E-1,9.869794846E0,9.871791050E0
2.144826640E-1,8.255238086E-2,-1.465603858E-1,9.807581902E0,9.809024294E0
2.169972470E-1,5.383851007E-2,-1.704886109E-1,9.831509590E0,9.833135094E0
2.188837060E-1,7.776673883E-2,-1.417747438E-1,9.893723488E0,9.895044831E0
2.213982890E-1,6.819544733E-2,-1.944168359E-1,9.898509026E0,9.900652981E0
2.239128720E-1,1.016949639E-1,-1.704886109E-1,9.884152412E0,9.886145717E0
2.264275080E-1,1.064806059E-1,-1.848455518E-1,9.874580383E0,9.876884314E0
2.289420910E-1,1.016949639E-1,-2.039881349E-1,9.850652695E0,9.853289376E0
2.314567270E-1,8.733802289E-2,-1.896311939E-1,9.850652695E0,9.852864884E0
2.339713100E-1,9.212367237E-2,-1.944168359E-1,9.869794846E0,9.872139331E0
2.364858930E-1,8.733802289E-2,-1.896311939E-1,9.874580383E0,9.876787214E0
2.390005290E-1,8.733802289E-2,-1.848455518E-1,9.817152977E0,9.819281460E0
2.415151120E-1,8.255238086E-2,-1.896311939E-1,9.855438232E0,9.857608109E0
2.440297470E-1,7.776673883E-2,-1.752742529E-1,9.826724052E0,9.828594728E0
2.465443310E-1,1.016949639E-1,-2.087737769E-1,9.826724052E0,9.829467634E0
2.484203720E-1,1.304088384E-1,-1.848455518E-1,9.826724052E0,9.829327543E0
2.509349560E-1,9.690931439E-2,-1.800599098E-1,9.817152977E0,9.819282334E0
2.534495390E-1,7.776673883E-2,-1.992024779E-1,9.817152977E0,9.819481751E0
2.559641750E-1,8.733802289E-2,-1.752742529E-1,9.817152977E0,9.819105945E0
2.584787580E-1,1.208375469E-1,-1.848455518E-1,9.812367439E0,9.814852233E0
2.609933930E-1,8.733802289E-2,-1.944168359E-1,9.798010826E0,9.800328667E0
2.635079770E-1,1.160518974E-1,-1.704886109E-1,9.798010826E0,9.800181149E0
2.660225600E-1,1.208375469E-1,-1.752742529E-1,9.812367439E0,9.814676640E0
2.685371950E-1,1.016949639E-1,-1.704886109E-1,9.778867722E0,9.780882483E0
2.710517790E-1,8.255238086E-2,-1.800599098E-1,9.807581902E0,9.809582011E0
2.735664140E-1,7.776673883E-2,-1.657029688E-1,9.826724052E0,9.828428702E0
2.760809970E-1,7.776673883E-2,-1.800599098E-1,9.826724052E0,9.828681236E0
2.779721430E-1,1.016949639E-1,-1.752742529E-1,9.850652695E0,9.852736749E0
2.804867270E-1,8.255238086E-2,-1.848455518E-1,9.855438232E0,9.857517209E0
2.830013100E-1,8.733802289E-2,-1.752742529E-1,9.826724052E0,9.828675119E0
2.855159450E-1,1.208375469E-1,-1.513460279E-1,9.812367439E0,9.814278481E0
2.880305290E-1,7.776673883E-2,-1.561316848E-1,9.788438797E0,9.789992791E0
2.905451640E-1,1.208375469E-1,-1.704886109E-1,9.831509590E0,9.833730162E0
2.930597470E-1,1.256231815E-1,-1.465603858E-1,9.845867157E0,9.847759197E0
2.955743310E-1,9.690931439E-2,-1.561316848E-1,9.845867157E0,9.847581865E0
2.980889660E-1,1.256231815E-1,-1.465603858E-1,9.831509590E0,9.833404393E0
3.006035500E-1,1.112662554E-1,-1.322034448E-1,9.793225288E0,9.794749587E0
3.031181850E-1,1.064806059E-1,-1.369891018E-1,9.798010826E0,9.799546943E0
3.056327680E-1,1.351944804E-1,-1.657029688E-1,9.821938515E0,9.824266446E0
3.075127680E-1,1.304088384E-1,-1.992024779E-1,9.850652695E0,9.853529652E0
3.100273520E-1,1.112662554E-1,-1.609173268E-1,9.841081619E0,9.843026059E0
3.125419350E-1,9.690931439E-2,-1.369891018E-1,9.831509590E0,9.832941485E0
3.150565700E-1,1.016949639E-1,-1.704886109E-1,9.817152977E0,9.819159883E0
3.175711540E-1,1.160518974E-1,-1.657029688E-1,9.817152977E0,9.819237144E0
3.200857890E-1,9.212367237E-2,-1.465603858E-1,9.836296082E0,9.837819236E0
3.226003720E-1,1.064806059E-1,-1.896311939E-1,9.855438232E0,9.857837535E0
3.251149560E-1,8.733802289E-2,-1.657029688E-1,9.831509590E0,9.833293763E0
3.276295910E-1,7.298108935E-2,-1.609173268E-1,9.807581902E0,9.809173430E0
3.301441750E-1,4.905286431E-2,-1.417747438E-1,9.812367439E0,9.813514204E0
3.326588100E-1,8.733802289E-2,-1.465603858E-1,9.826724052E0,9.828204998E0
3.351733930E-1,6.340979785E-2,-1.465603858E-1,9.821938515E0,9.823236581E0
3.370537060E-1,9.690931439E-2,-1.561316848E-1,9.826724052E0,9.828442100E0
3.395682890E-1,7.776673883E-2,-1.752742529E-1,9.798010826E0,9.799886983E0
3.420828720E-1,8.733802289E-2,-1.561316848E-1,9.798010826E0,9.799643931E0
3.445975080E-1,9.212367237E-2,-1.417747438E-1,9.821938515E0,9.823393662E0
3.471120910E-1,8.255238086E-2,-1.704886109E-1,9.817152977E0,9.818980285E0
3.496267270E-1,8.733802289E-2,-1.513460279E-1,9.802796364E0,9.804353630E0
3.521413100E-1,1.208375469E-1,-1.704886109E-1,9.841081619E0,9.843300032E0
3.546558930E-1,1.160518974E-1,-1.657029688E-1,9.812367439E0,9.814452623E0
3.571705290E-1,9.690931439E-2,-1.561316848E-1,9.812367439E0,9.814088000E0
3.596851120E-1,8.733802289E-2,-1.704886109E-1,9.807581902E0,9.809452434E0
3.621997470E-1,9.690931439E-2,-1.465603858E-1,9.793225288E0,9.794801321E0
3.647143310E-1,1.304088384E-1,-1.657029688E-1,9.812367439E0,9.814632887E0
3.665950080E-1,1.256231815E-1,-1.896311939E-1,9.836296082E0,9.838925845E0
3.691095910E-1,7.776673883E-2,-1.657029688E-1,9.793225288E0,9.794935767E0
3.716241750E-1,9.212367237E-2,-1.992024779E-1,9.807581902E0,9.810037266E0
3.741388100E-1,8.255238086E-2,-1.944168359E-1,9.831509590E0,9.833778197E0
3.766533930E-1,9.212367237E-2,-1.848455518E-1,9.831509590E0,9.833678634E0
3.791680290E-1,7.298108935E-2,-1.657029688E-1,9.817152977E0,9.818822551E0
3.816826120E-1,8.255238086E-2,-1.609173268E-1,9.821938515E0,9.823603487E0
3.841971950E-1,9.690931439E-2,-1.704886109E-1,9.821938515E0,9.823896069E0
3.867118310E-1,9.212367237E-2,-1.944168359E-1,9.831509590E0,9.833863203E0
3.892264140E-1,7.776673883E-2,-1.896311939E-1,9.793225288E0,9.795369784E0
3.917410500E-1,8.255238086E-2,-1.561316848E-1,9.807581902E0,9.809171971E0
3.942556330E-1,8.255238086E-2,-1.657029688E-1,9.798010826E0,9.799759615E0
3.961376640E-1,7.776673883E-2,-2.039881349E-1,9.821938515E0,9.824364357E0
3.986522470E-1,8.733802289E-2,-2.279163599E-1,9.783653259E0,9.786697344E0
4.011668310E-1,9.212367237E-2,-1.992024779E-1,9.817152977E0,9.819605948E0
4.036814660E-1,8.255238086E-2,-1.704886109E-1,9.821938515E0,9.823764932E0
4.061960500E-1,9.212367237E-2,-1.944168359E-1,9.817152977E0,9.819510031E0
4.087106850E-1,1.160518974E-1,-1.609173268E-1,9.798010826E0,9.800019315E0
4.112252680E-1,7.776673883E-2,-1.657029688E-1,9.812367439E0,9.814074582E0
4.137398520E-1,8.255238086E-2,-1.704886109E-1,9.812367439E0,9.814195638E0
4.162544870E-1,1.160518974E-1,-1.944168359E-1,9.798010826E0,9.800626618E0
4.187690700E-1,1.160518974E-1,-1.992024779E-1,9.798010826E0,9.800722719E0
4.212837060E-1,1.208375469E-1,-1.609173268E-1,9.798010826E0,9.800077155E0
4.237982890E-1,9.690931439E-2,-1.752742529E-1,9.807581902E0,9.809626661E0
4.257039140E-1,9.690931439E-2,-1.704886109E-1,9.812367439E0,9.814326902E0
4.282184970E-1,1.160518974E-1,-1.513460279E-1,9.812367439E0,9.814220724E0
4.307331330E-1,1.208375469E-1,-1.752742529E-1,9.802796364E0,9.805107818E0
4.332477160E-1,1.495514214E-1,-1.657029688E-1,9.807581902E0,9.810121603E0
4.357623520E-1,1.543370634E-1,-1.657029688E-1,9.817152977E0,9.819764253E0
4.382769350E-1,1.160518974E-1,-1.657029688E-1,9.807581902E0,9.809668102E0
4.407915180E-1,1.256231815E-1,-1.417747438E-1,9.826724052E0,9.828549581E0
4.433061540E-1,9.690931439E-2,-1.513460279E-1,9.817152977E0,9.818797768E0
4.458207370E-1,1.112662554E-1,-1.657029688E-1,9.836296082E0,9.838320906E0
4.483353720E-1,7.776673883E-2,-1.657029688E-1,9.826724052E0,9.828428702E0
4.508499560E-1,4.426721856E-2,-1.657029688E-1,9.826724052E0,9.828220727E0
4.533645390E-1,8.733802289E-2,-1.657029688E-1,9.821938515E0,9.823724426E0
4.552255290E-1,8.255238086E-2,-1.704886109E-1,9.793225288E0,9.795057060E0
4.577401120E-1,7.298108935E-2,-1.752742529E-1,9.836296082E0,9.838128273E0
4.602546950E-1,7.776673883E-2,-1.657029688E-1,9.841081619E0,9.842783782E0
4.627693310E-1,1.112662554E-1,-1.800599098E-1,9.855438232E0,9.857710916E0
4.652839140E-1,1.112662554E-1,-1.752742529E-1,9.812367439E0,9.814563465E0
4.677985500E-1,1.064806059E-1,-1.704886109E-1,9.812367439E0,9.814426078E0
4.703131330E-1,9.690931439E-2,-1.752742529E-1,9.831509590E0,9.833549374E0
4.728277160E-1,1.208375469E-1,-1.369891018E-1,9.874580383E0,9.876269816E0
4.753423520E-1,1.399801224E-1,-1.609173268E-1,9.826724052E0,9.829038326E0
4.778569350E-1,1.208375469E-1,-1.992024779E-1,9.865009308E0,9.867760231E0
4.803715700E-1,8.733802289E-2,-1.896311939E-1,9.845867157E0,9.848080422E0
4.828861540E-1,8.255238086E-2,-1.704886109E-1,9.826724052E0,9.828549581E0
4.847656850E-1,1.112662554E-1,-2.087737769E-1,9.821938515E0,9.824787166E0
4.872802680E-1,1.112662554E-1,-1.944168359E-1,9.821938515E0,9.824492571E0
4.897948520E-1,1.399801224E-1,-1.561316848E-1,9.821938515E0,9.824176694E0
4.923094870E-1,1.495514214E-1,-1.609173268E-1,9.788438797E0,9.790903640E0
4.948240700E-1,1.351944804E-1,-1.417747438E-1,9.869794846E0,9.871738850E0
4.973387060E-1,9.212367237E-2,-1.417747438E-1,9.826724052E0,9.828178491E0
4.998532890E-1,9.212367237E-2,-1.561316848E-1,9.793225288E0,9.794903033E0
5.023678720E-1,1.112662554E-1,-1.657029688E-1,9.841081619E0,9.843105460E0
5.048825080E-1,1.016949639E-1,-1.848455518E-1,9.836296082E0,9.838558347E0
5.073970910E-1,8.733802289E-2,-1.848455518E-1,9.836296082E0,9.838420423E0
5.099117270E-1,1.016949639E-1,-1.609173268E-1,9.817152977E0,9.818998362E0
5.124263100E-1,1.112662554E-1,-1.657029688E-1,9.812367439E0,9.814397201E0
5.143084970E-1,9.690931439E-2,-1.609173268E-1,9.807581902E0,9.809380641E0
5.168230810E-1,8.733802289E-2,-1.561316848E-1,9.817152977E0,9.818782898E0
5.193376640E-1,7.298108935E-2,-1.848455518E-1,9.812367439E0,9.814379699E0
5.218523000E-1,9.690931439E-2,-1.752742529E-1,9.812367439E0,9.814411202E0
5.243668830E-1,8.733802289E-2,-2.039881349E-1,9.821938515E0,9.824444782E0
5.268815180E-1,1.160518974E-1,-1.944168359E-1,9.812367439E0,9.814979405E0
5.293961020E-1,1.399801224E-1,-1.752742529E-1,9.845867157E0,9.848421984E0
5.319106850E-1,9.212367237E-2,-1.657029688E-1,9.826724052E0,9.828552785E0
5.344253200E-1,1.112662554E-1,-1.800599098E-1,9.817152977E0,9.819434522E0
5.369399040E-1,8.733802289E-2,-1.800599098E-1,9.841081619E0,9.843116221E0
5.394545390E-1,9.212367237E-2,-1.752742529E-1,9.826724052E0,9.828718810E0
5.419691220E-1,9.690931439E-2,-1.465603858E-1,9.812367439E0,9.813940397E0
5.438515700E-1,1.160518974E-1,-1.465603858E-1,9.812367439E0,9.814148091E0
5.463661540E-1,1.256231815E-1,-1.561316848E-1,9.774082184E0,9.776136293E0
5.488807370E-1,1.160518974E-1,-1.657029688E-1,9.817152977E0,9.819237144E0
5.513953720E-1,1.351944804E-1,-1.369891018E-1,9.764511108E0,9.766407771E0
5.539099560E-1,9.690931439E-2,-1.752742529E-1,9.831509590E0,9.833549374E0
5.564245910E-1,8.255238086E-2,-1.657029688E-1,9.831509590E0,9.833252422E0
5.589391750E-1,8.255238086E-2,-1.848455518E-1,9.774082184E0,9.776178461E0
5.614537580E-1,7.298108935E-2,-1.704886109E-1,9.788438797E0,9.790195437E0
5.639683930E-1,1.016949639E-1,-1.561316848E-1,9.855438232E0,9.857199487E0
5.664829770E-1,7.298108935E-2,-1.609173268E-1,9.836296082E0,9.837882965E0
5.689976120E-1,8.255238086E-2,-1.561316848E-1,9.836296082E0,9.837881510E0
5.715121950E-1,9.212367237E-2,-1.848455518E-1,9.812367439E0,9.814540713E0
5.733965700E-1,8.733802289E-2,-1.944168359E-1,9.817152977E0,9.819466300E0
5.759111540E-1,1.064806059E-1,-1.992024779E-1,9.802796364E0,9.805398324E0
5.784257370E-1,1.112662554E-1,-1.752742529E-1,9.831509590E0,9.833701341E0
5.809403720E-1,8.733802289E-2,-1.657029688E-1,9.821938515E0,9.823724426E0
5.834549560E-1,1.016949639E-1,-1.417747438E-1,9.817152977E0,9.818703301E0
5.859695910E-1,1.208375469E-1,-1.513460279E-1,9.831509590E0,9.833416911E0
5.884841750E-1,1.016949639E-1,-1.609173268E-1,9.831509590E0,9.833352281E0
5.909987580E-1,1.016949639E-1,-1.848455518E-1,9.821938515E0,9.824204086E0
5.935133930E-1,1.351944804E-1,-1.896311939E-1,9.807581902E0,9.810346594E0
5.960279770E-1,9.690931439E-2,-1.896311939E-1,9.821938515E0,9.824246922E0
5.985426120E-1,1.016949639E-1,-1.992024779E-1,9.836296082E0,9.838838554E0
6.010571950E-1,1.160518974E-1,-1.944168359E-1,9.884152412E0,9.886745413E0
6.029402160E-1,1.399801224E-1,-1.800599098E-1,9.908080101E0,9.910704682E0
6.054548000E-1,9.690931439E-2,-2.039881349E-1,9.860223770E0,9.862809710E0
6.079693830E-1,1.112662554E-1,-1.944168359E-1,9.807581902E0,9.810139695E0
6.104840180E-1,8.733802289E-2,-1.417747438E-1,9.841081619E0,9.842490307E0
6.129986020E-1,9.690931439E-2,-1.561316848E-1,9.869794846E0,9.871505397E0
6.155132370E-1,9.212367237E-2,-1.800599098E-1,9.874580383E0,9.876651563E0
6.180278200E-1,8.255238086E-2,-1.800599098E-1,9.884152412E0,9.886137030E0
6.205424040E-1,1.112662554E-1,-1.944168359E-1,9.898509026E0,9.901043330E0
6.230570390E-1,8.255238086E-2,-1.800599098E-1,9.869794846E0,9.871782350E0
6.255716220E-1,5.862415582E-2,-1.848455518E-1,9.884152412E0,9.886054500E0
6.280862580E-1,6.340979785E-2,-1.609173268E-1,9.836296082E0,9.837816617E0
6.306008410E-1,9.690931439E-2,-2.039881349E-1,9.778867722E0,9.781475169E0
6.324882890E-1,8.733802289E-2,-1.944168359E-1,9.841081619E0,9.843389318E0
6.350028720E-1,8.733802289E-2,-1.657029688E-1,9.850652695E0,9.852433401E0
6.375174560E-1,9.690931439E-2,-1.944168359E-1,9.826724052E0,9.829124830E0
6.400320910E-1,1.112662554E-1,-1.896311939E-1,9.831509590E0,9.833967714E0
6.425466750E-1,1.016949639E-1,-1.657029688E-1,9.836296082E0,9.838217315E0
6.450613100E-1,1.112662554E-1,-2.135594189E-1,9.850652695E0,9.853595603E0
6.475758930E-1,1.112662554E-1,-1.417747438E-1,9.802796364E0,9.804452907E0
6.500904770E-1,9.690931439E-2,-1.848455518E-1,9.826724052E0,9.828940172E0
6.526051120E-1,1.208375469E-1,-1.848455518E-1,9.774082184E0,9.776576708E0
6.551196950E-1,7.298108935E-2,-1.274178028E-1,9.831509590E0,9.832606082E0
6.576343310E-1,1.160518974E-1,-1.800599098E-1,9.798010826E0,9.800352328E0
6.601489140E-1,1.495514214E-1,-1.561316848E-1,9.802796364E0,9.805180227E0
6.620268310E-1,8.255238086E-2,-1.609173268E-1,9.783653259E0,9.785324746E0
6.645414140E-1,8.733802289E-2,-1.848455518E-1,9.836296082E0,9.838420423E0
6.670559970E-1,1.016949639E-1,-1.369891018E-1,9.783653259E0,9.785140723E0
6.695706330E-1,1.112662554E-1,-1.513460279E-1,9.798010826E0,9.799811322E0
6.720852160E-1,1.208375469E-1,-1.848455518E-1,9.850652695E0,9.853127833E0
6.745998000E-1,8.733802289E-2,-1.752742529E-1,9.807581902E0,9.809536775E0
6.771144350E-1,6.340979785E-2,-1.465603858E-1,9.836296082E0,9.837592254E0
6.796290180E-1,7.298108935E-2,-1.657029688E-1,9.798010826E0,9.799683661E0
6.821436540E-1,7.298108935E-2,-1.704886109E-1,9.783653259E0,9.785410758E0
6.846582370E-1,7.298108935E-2,-1.417747438E-1,9.812367439E0,9.813662980E0
6.871728720E-1,8.255238086E-2,-1.465603858E-1,9.812367439E0,9.813809128E0
6.896874560E-1,7.776673883E-2,-1.848455518E-1,9.769296646E0,9.771354691E0
6.915725080E-1,6.819544733E-2,-1.896311939E-1,9.774082184E0,9.776159427E0
6.940870910E-1,1.016949639E-1,-1.561316848E-1,9.788438797E0,9.790212105E0
6.966016750E-1,8.733802289E-2,-1.561316848E-1,9.807581902E0,9.809213413E0
6.991163100E-1,9.690931439E-2,-1.561316848E-1,9.817152977E0,9.818872700E0
7.016308930E-1,1.064806059E-1,-1.896311939E-1,9.793225288E0,9.795639829E0
7.041455290E-1,9.690931439E-2,-1.704886109E-1,9.783653259E0,9.785618472E0
7.066601120E-1,1.160518974E-1,-1.609173268E-1,9.774082184E0,9.776095589E0
7.091746950E-1,8.255238086E-2,-1.752742529E-1,9.807581902E0,9.809495334E0
7.116893310E-1,1.016949639E-1,-1.752742529E-1,9.793225288E0,9.795321561E0
7.142039140E-1,1.256231815E-1,-1.609173268E-1,9.793225288E0,9.795352833E0
7.167185500E-1,1.160518974E-1,-1.465603858E-1,9.774082184E0,9.775869809E0
7.192331330E-1,1.304088384E-1,-1.896311939E-1,9.807581902E0,9.810281811E0
7.211099560E-1,9.690931439E-2,-1.800599098E-1,9.836296082E0,9.838421296E0
7.236245390E-1,6.819544733E-2,-1.609173268E-1,9.788438797E0,9.789998932E0
7.261391220E-1,9.212367237E-2,-1.800599098E-1,9.817152977E0,9.819236269E0
7.286537580E-1,7.776673883E-2,-1.561316848E-1,9.783653259E0,9.785208013E0
7.311683410E-1,9.690931439E-2,-1.465603858E-1,9.745368004E0,9.746951774E0
7.336829770E-1,9.690931439E-2,-1.657029688E-1,9.793225288E0,9.795106454E0
7.361975600E-1,1.208375469E-1,-1.848455518E-1,9.826724052E0,9.829205217E0
7.387121430E-1,1.064806059E-1,-1.752742529E-1,9.817152977E0,9.819294871E0
7.412267790E-1,6.340979785E-2,-1.848455518E-1,9.845867157E0,9.847806291E0
7.437413620E-1,9.690931439E-2,-1.848455518E-1,9.826724052E0,9.828940172E0
7.462559970E-1,1.016949639E-1,-1.752742529E-1,9.778867722E0,9.780967071E0
7.487705810E-1,1.112662554E-1,-1.800599098E-1,9.836296082E0,9.838573187E0
7.506560500E-1,1.064806059E-1,-1.561316848E-1,9.879366875E0,9.881174276E0
7.531706330E-1,8.255238086E-2,-1.704886109E-1,9.812367439E0,9.814195638E0
7.556852160E-1,6.819544733E-2,-1.848455518E-1,9.831509590E0,9.833483580E0
7.581998520E-1,9.690931439E-2,-1.513460279E-1,9.836296082E0,9.837937672E0
7.607144350E-1,1.351944804E-1,-1.896311939E-1,9.850652695E0,9.853405302E0
7.632290700E-1,9.212367237E-2,-1.657029688E-1,9.855438232E0,9.857261638E0
7.657436540E-1,7.298108935E-2,-1.657029688E-1,9.850652695E0,9.852316592E0
7.682582370E-1,8.255238086E-2,-1.752742529E-1,9.826724052E0,9.828633759E0
7.707728720E-1,1.112662554E-1,-1.752742529E-1,9.817152977E0,9.819347932E0
7.732874560E-1,8.733802289E-2,-1.992024779E-1,9.860223770E0,9.862622489E0
7.758020390E-1,6.340979785E-2,-2.087737769E-1,9.812367439E0,9.814793022E0
7.783166750E-1,3.948157281E-2,-1.561316848E-1,9.807581902E0,9.808904050E0
7.802032890E-1,7.298108935E-2,-1.657029688E-1,9.798010826E0,9.799683661E0
7.827178720E-1,7.776673883E-2,-1.657029688E-1,9.802796364E0,9.804505173E0
7.852324560E-1,9.212367237E-2,-1.848455518E-1,9.802796364E0,9.804971759E0
7.877470910E-1,6.819544733E-2,-1.848455518E-1,9.798010826E0,9.799991564E0
7.902616750E-1,1.064806059E-1,-1.369891018E-1,9.812367439E0,9.813901309E0
7.927763100E-1,6.340979785E-2,-1.848455518E-1,9.793225288E0,9.795174844E0
7.952908930E-1,8.733802289E-2,-1.609173268E-1,9.841081619E0,9.842784654E0
7.978054770E-1,1.256231815E-1,-1.609173268E-1,9.802796364E0,9.804921831E0
8.003201120E-1,1.208375469E-1,-1.752742529E-1,9.826724052E0,9.829029880E0
8.028346950E-1,1.304088384E-1,-1.465603858E-1,9.793225288E0,9.795190042E0
8.053492790E-1,8.733802289E-2,-1.848455518E-1,9.812367439E0,9.814496960E0
8.075385500E-1,1.208375469E-1,-1.752742529E-1,9.793225288E0,9.795539001E0
8.097277680E-1,1.208375469E-1,-1.848455518E-1,9.788438797E0,9.790929663E0
8.122423520E-1,1.304088384E-1,-1.944168359E-1,9.836296082E0,9.839081511E0
8.146512580E-1,9.212367237E-2,-1.800599098E-1,9.841081619E0,9.843159847E0
8.171658410E-1,1.304088384E-1,-1.800599098E-1,9.817152977E0,9.819670087E0
8.196147470E-1,1.495514214E-1,-1.800599098E-1,9.826724052E0,9.829511321E0
8.220636540E-1,9.212367237E-2,-1.704886109E-1,9.831509590E0,9.833419240E0
8.245782370E-1,9.212367237E-2,-1.609173268E-1,9.788438797E0,9.790194852E0
8.270928720E-1,1.064806059E-1,-1.848455518E-1,9.783653259E0,9.785978597E0
8.296074560E-1,7.776673883E-2,-1.657029688E-1,9.783653259E0,9.785365412E0
8.321220910E-1,8.255238086E-2,-1.561316848E-1,9.812367439E0,9.813956733E0
8.346366750E-1,6.340979785E-2,-1.657029688E-1,9.807581902E0,9.809186563E0
8.371513100E-1,7.776673883E-2,-1.513460279E-1,9.836296082E0,9.837767729E0
8.396658930E-1,4.905286431E-2,-1.944168359E-1,9.855438232E0,9.857477712E0
8.421804770E-1,7.776673883E-2,-1.800599098E-1,9.826724052E0,9.828681236E0
8.446951120E-1,9.690931439E-2,-1.609173268E-1,9.826724052E0,9.828519288E0
8.472096950E-1,9.212367237E-2,-1.704886109E-1,9.817152977E0,9.819065419E0
8.497243310E-1,6.340979785E-2,-1.992024779E-1,9.812367439E0,9.814594092E0
8.522389140E-1,8.733802289E-2,-1.992024779E-1,9.817152977E0,9.819562217E0
8.540553720E-1,4.905286431E-2,-1.944168359E-1,9.802796364E0,9.804846793E0
8.565699560E-1,8.255238086E-2,-1.992024779E-1,9.812367439E0,9.814736435E0
8.590845390E-1,1.256231815E-1,-1.704886109E-1,9.836296082E0,9.838575514E0
8.615991750E-1,8.733802289E-2,-2.087737769E-1,9.807581902E0,9.810192515E0
8.641137580E-1,1.064806059E-1,-1.800599098E-1,9.821938515E0,9.824165913E0
8.666283930E-1,1.016949639E-1,-2.039881349E-1,9.831509590E0,9.834151404E0
8.691429770E-1,1.399801224E-1,-1.896311939E-1,9.850652695E0,9.853472126E0
8.716575600E-1,1.016949639E-1,-2.183450609E-1,9.893723488E0,9.896655035E0
8.741721950E-1,1.064806059E-1,-1.896311939E-1,9.884152412E0,9.886544746E0
8.766867790E-1,1.112662554E-1,-1.704886109E-1,9.845867157E0,9.847971701E0
8.792014140E-1,1.543370634E-1,-1.657029688E-1,9.826724052E0,9.829332785E0
8.817159970E-1,1.016949639E-1,-1.896311939E-1,9.826724052E0,9.829079685E0
8.835996950E-1,7.776673883E-2,-1.704886109E-1,9.850652695E0,9.852434854E0
8.861142790E-1,5.862415582E-2,-1.800599098E-1,9.841081619E0,9.842903322E0
8.886288620E-1,5.383851007E-2,-1.704886109E-1,9.869794846E0,9.871414045E0
8.911434970E-1,5.862415582E-2,-1.944168359E-1,9.855438232E0,9.857529987E0
8.936580810E-1,5.862415582E-2,-1.561316848E-1,9.850652695E0,9.852064373E0
8.961727160E-1,6.819544733E-2,-1.561316848E-1,9.884152412E0,9.885620700E0
8.986873000E-1,8.733802289E-2,-1.657029688E-1,9.841081619E0,9.842864057E0
9.012018830E-1,5.862415582E-2,-1.369891018E-1,9.836296082E0,9.837424633E0
9.037165180E-1,3.948157281E-2,-1.609173268E-1,9.884152412E0,9.885541062E0
9.062311020E-1,8.733802289E-2,-1.704886109E-1,9.884152412E0,9.886008457E0
9.087457370E-1,5.383851007E-2,-1.657029688E-1,9.855438232E0,9.856978179E0
9.112603200E-1,1.016949639E-1,-1.800599098E-1,9.874580383E0,9.876745475E0
9.131456330E-1,1.208375469E-1,-1.800599098E-1,9.860223770E0,9.862607976E0
9.156602160E-1,8.255238086E-2,-1.657029688E-1,9.869794846E0,9.871530918E0
9.181748000E-1,1.208375469E-1,-1.561316848E-1,9.836296082E0,9.838277259E0
9.206894350E-1,1.399801224E-1,-1.417747438E-1,9.850652695E0,9.852667305E0
9.232040180E-1,1.304088384E-1,-1.465603858E-1,9.888937950E0,9.890883691E0
9.257186540E-1,1.160518974E-1,-1.465603858E-1,9.874580383E0,9.876349818E0
9.282332370E-1,1.112662554E-1,-1.417747438E-1,9.841081619E0,9.842731719E0
9.307478200E-1,1.064806059E-1,-1.704886109E-1,9.865009308E0,9.867056964E0
9.332624560E-1,9.690931439E-2,-1.752742529E-1,9.860223770E0,9.862257616E0
9.357770390E-1,8.255238086E-2,-1.465603858E-1,9.898509026E0,9.899938170E0
9.382916750E-1,8.733802289E-2,-1.657029688E-1,9.831509590E0,9.833293763E0
9.408062580E-1,1.160518974E-1,-1.561316848E-1,9.841081619E0,9.843004246E0
9.426881330E-1,1.160518974E-1,-1.992024779E-1,9.778867722E0,9.781584922E0
9.452027160E-1,1.304088384E-1,-1.752742529E-1,9.841081619E0,9.843506233E0
9.477173000E-1,9.690931439E-2,-1.657029688E-1,9.826724052E0,9.828598806E0
9.502319350E-1,1.160518974E-1,-1.178465188E-1,9.802796364E0,9.804191573E0
9.527465180E-1,1.304088384E-1,-1.417747438E-1,9.831509590E0,9.833396532E0
9.552611540E-1,9.212367237E-2,-1.944168359E-1,9.783653259E0,9.786018382E0
9.577757370E-1,9.690931439E-2,-1.657029688E-1,9.812367439E0,9.814244935E0
9.602903200E-1,1.112662554E-1,-1.130608693E-1,9.774082184E0,9.775369327E0
9.628049560E-1,1.112662554E-1,-1.322034448E-1,9.774082184E0,9.775609468E0
9.653195390E-1,8.255238086E-2,-1.992024779E-1,9.807581902E0,9.809952053E0
9.678341750E-1,7.298108935E-2,-1.848455518E-1,9.783653259E0,9.785671424E0
9.703487580E-1,8.255238086E-2,-1.561316848E-1,9.769296646E0,9.770892946E0
9.722310500E-1,8.255238086E-2,-1.657029688E-1,9.774082184E0,9.775835254E0
9.747455810E-1,1.112662554E-1,-1.752742529E-1,9.778867722E0,9.781071268E0
9.772602160E-1,1.016949639E-1,-1.704886109E-1,9.812367439E0,9.814375324E0
9.797748520E-1,1.304088384E-1,-1.896311939E-1,9.812367439E0,9.815066032E0
9.822894350E-1,1.160518974E-1,-1.752742529E-1,9.788438797E0,9.790695746E0
9.848040180E-1,9.690931439E-2,-1.992024779E-1,9.774082184E0,9.776592227E0
9.873186540E-1,8.733802289E-2,-1.944168359E-1,9.778867722E0,9.781190099E0
9.898332370E-1,1.112662554E-1,-1.848455518E-1,9.841081619E0,9.843446322E0
9.923478720E-1,1.064806059E-1,-2.039881349E-1,9.817152977E0,9.819849380E0
9.948624560E-1,1.208375469E-1,-1.944168359E-1,9.826724052E0,9.829389870E0
9.973770910E-1,7.298108935E-2,-2.422732860E-1,9.850652695E0,9.853901821E0
9.998916750E-1,1.064806059E-1,-2.231307179E-1,9.826724052E0,9.829833724E0
1.001774487E0,1.160518974E-1,-2.039881349E-1,9.812367439E0,9.815173659E0
1.004289070E0,6.340979785E-2,-2.231307179E-1,9.793225288E0,9.795972115E0
1.006803654E0,8.255238086E-2,-2.279163599E-1,9.826724052E0,9.829713443E0
1.009318289E0,9.212367237E-2,-1.944168359E-1,9.831509590E0,9.833863203E0
1.011832872E0,7.776673883E-2,-1.848455518E-1,9.812367439E0,9.814416453E0
1.014347508E0,6.819544733E-2,-2.087737769E-1,9.778867722E0,9.781333806E0
1.016862091E0,9.212367237E-2,-2.231307179E-1,9.798010826E0,9.800984146E0
1.019376675E0,1.016949639E-1,-2.183450609E-1,9.812367439E0,9.815323285E0
1.021891310E0,6.819544733E-2,-1.992024779E-1,9.802796364E0,9.805057307E0
1.024405893E0,9.212367237E-2,-2.231307179E-1,9.798010826E0,9.800984146E0
1.026920529E0,9.690931439E-2,-1.944168359E-1,9.821938515E0,9.824340462E0
1.029435112E0,9.690931439E-2,-1.657029688E-1,9.826724052E0,9.828598806E0
1.031314904E0,1.064806059E-1,-1.609173268E-1,9.788438797E0,9.790340474E0
1.033829487E0,5.383851007E-2,-1.800599098E-1,9.798010826E0,9.799813075E0
1.036344070E0,7.298108935E-2,-1.657029688E-1,9.855438232E0,9.857101322E0
1.038858706E0,1.064806059E-1,-1.800599098E-1,9.826724052E0,9.828950366E0
1.041373289E0,9.212367237E-2,-1.896311939E-1,9.774082184E0,9.776355625E0
1.043887925E0,9.212367237E-2,-1.896311939E-1,9.798010826E0,9.800278716E0
1.046402508E0,7.776673883E-2,-1.657029688E-1,9.802796364E0,9.804505173E0
1.048917091E0,9.212367237E-2,-1.561316848E-1,9.826724052E0,9.828396079E0
1.051431727E0,1.016949639E-1,-1.465603858E-1,9.817152977E0,9.818773568E0
1.053946310E0,1.208375469E-1,-1.704886109E-1,9.802796364E0,9.805023439E0
1.056460945E0,6.819544733E-2,-1.417747438E-1,9.807581902E0,9.808843635E0
1.058975529E0,8.733802289E-2,-1.657029688E-1,9.865009308E0,9.866787423E0
1.060859800E0,9.212367237E-2,-1.513460279E-1,9.855438232E0,9.857030747E0
1.063374383E0,1.112662554E-1,-1.609173268E-1,9.845867157E0,9.847810652E0
1.065888966E0,1.351944804E-1,-1.226321608E-1,9.812367439E0,9.814064956E0
1.068403602E0,1.208375469E-1,-1.848455518E-1,9.850652695E0,9.853127833E0
1.070918185E0,9.690931439E-2,-1.704886109E-1,9.884152412E0,9.886097647E0
1.073432820E0,1.256231815E-1,-1.465603858E-1,9.826724052E0,9.828619778E0
1.075947404E0,1.064806059E-1,-1.369891018E-1,9.884152412E0,9.885675144E0
1.078461987E0,1.399801224E-1,-1.513460279E-1,9.860223770E0,9.862378661E0
1.080976622E0,8.255238086E-2,-1.657029688E-1,9.817152977E0,9.818898357E0
1.083491206E0,7.776673883E-2,-1.369891018E-1,9.807581902E0,9.808846845E0
1.086005841E0,1.016949639E-1,-1.513460279E-1,9.860223770E0,9.861909566E0
1.088520425E0,8.733802289E-2,-1.704886109E-1,9.869794846E0,9.871653589E0
1.090402195E0,9.212367237E-2,-1.657029688E-1,9.869794846E0,9.871615599E0
1.092916779E0,8.255238086E-2,-1.609173268E-1,9.850652695E0,9.852312814E0
1.095431362E0,1.256231815E-1,-1.465603858E-1,9.874580383E0,9.876466923E0
1.097945997E0,1.016949639E-1,-1.704886109E-1,9.879366875E0,9.881361145E0
1.100460581E0,1.016949639E-1,-1.800599098E-1,9.860223770E0,9.862392014E0
1.102975216E0,6.819544733E-2,-1.704886109E-1,9.860223770E0,9.861933369E0
1.105489800E0,6.340979785E-2,-1.657029688E-1,9.893723488E0,9.895314180E0
1.108004383E0,1.256231815E-1,-1.800599098E-1,9.865009308E0,9.867452123E0
1.110519018E0,1.208375469E-1,-1.609173268E-1,9.865009308E0,9.867061606E0
1.113033602E0,8.733802289E-2,-1.752742529E-1,9.855438232E0,9.857383616E0
1.115548237E0,1.160518974E-1,-2.039881349E-1,9.869794846E0,9.872584742E0
1.118062820E0,8.733802289E-2,-1.561316848E-1,9.879366875E0,9.880986534E0
1.119944747E0,4.426721856E-2,-1.609173268E-1,9.836296082E0,9.837711857E0
1.122459331E0,1.160518974E-1,-1.944168359E-1,9.874580383E0,9.877175897E0
1.124973914E0,9.690931439E-2,-2.039881349E-1,9.817152977E0,9.819750259E0
1.127488550E0,1.064806059E-1,-1.752742529E-1,9.831509590E0,9.833648357E0
1.130003133E0,7.776673883E-2,-1.944168359E-1,9.845867157E0,9.848093503E0
1.132517768E0,7.776673883E-2,-1.561316848E-1,9.812367439E0,9.813917644E0
1.135032352E0,1.016949639E-1,-1.657029688E-1,9.817152977E0,9.819077956E0
1.137546935E0,8.255238086E-2,-1.944168359E-1,9.817152977E0,9.819424900E0
1.140061570E0,8.733802289E-2,-1.848455518E-1,9.788438797E0,9.790573522E0
1.142576154E0,8.733802289E-2,-1.992024779E-1,9.745368004E0,9.747794986E0
1.145090789E0,1.208375469E-1,-1.896311939E-1,9.793225288E0,9.795806412E0
1.147605372E0,8.733802289E-2,-1.704886109E-1,9.788438797E0,9.790312987E0
1.149499279E0,6.819544733E-2,-1.848455518E-1,9.793225288E0,9.795206994E0
1.152013862E0,8.733802289E-2,-1.657029688E-1,9.845867157E0,9.847648728E0
1.154528445E0,8.255238086E-2,-1.465603858E-1,9.831509590E0,9.832948473E0
1.157043081E0,5.383851007E-2,-2.183450609E-1,9.778867722E0,9.781453219E0
1.159557664E0,1.256231815E-1,-2.374876440E-1,9.802796364E0,9.806477355E0
1.162072300E0,9.212367237E-2,-2.183450609E-1,9.841081619E0,9.843934619E0
1.164586883E0,9.690931439E-2,-1.848455518E-1,9.812367439E0,9.814586800E0
1.167101466E0,9.690931439E-2,-1.848455518E-1,9.798010826E0,9.800233438E0
1.169616102E0,6.340979785E-2,-1.848455518E-1,9.788438797E0,9.790389306E0
1.172130685E0,7.298108935E-2,-1.609173268E-1,9.802796364E0,9.804388669E0
1.174645320E0,8.255238086E-2,-1.944168359E-1,9.817152977E0,9.819424900E0
1.177159904E0,9.212367237E-2,-2.183450609E-1,9.836296082E0,9.839150468E0
1.179045112E0,7.298108935E-2,-1.944168359E-1,9.841081619E0,9.843272402E0
1.181559643E0,7.776673883E-2,-1.752742529E-1,9.836296082E0,9.838164937E0
1.184074279E0,1.112662554E-1,-2.135594189E-1,9.817152977E0,9.820105925E0
1.186588914E0,9.212367237E-2,-1.800599098E-1,9.812367439E0,9.814451748E0
1.189103497E0,9.690931439E-2,-1.800599098E-1,9.836296082E0,9.838421296E0
1.191618133E0,1.160518974E-1,-1.752742529E-1,9.831509590E0,9.833756654E0
1.194132664E0,1.112662554E-1,-1.896311939E-1,9.850652695E0,9.853106042E0
1.196647300E0,8.255238086E-2,-2.327020019E-1,9.860223770E0,9.863314753E0
1.199161935E0,9.212367237E-2,-2.135594189E-1,9.841081619E0,9.843829632E0
1.201676518E0,8.255238086E-2,-1.704886109E-1,9.845867157E0,9.847689137E0
1.204191154E0,1.016949639E-1,-1.944168359E-1,9.850652695E0,9.853095873E0
1.206705737E0,6.819544733E-2,-1.848455518E-1,9.783653259E0,9.785636903E0
1.208584747E0,8.733802289E-2,-1.704886109E-1,9.802796364E0,9.804667809E0
1.211099331E0,5.862415582E-2,-1.752742529E-1,9.821938515E0,9.823677216E0
1.213613914E0,9.690931439E-2,-1.800599098E-1,9.821938515E0,9.824066835E0
1.216128550E0,1.304088384E-1,-2.039881349E-1,9.826724052E0,9.829706162E0
1.218643133E0,9.690931439E-2,-2.039881349E-1,9.836296082E0,9.838888310E0
1.221157716E0,1.160518974E-1,-1.561316848E-1,9.884152412E0,9.886066663E0
1.223672352E0,1.208375469E-1,-1.465603858E-1,9.831509590E0,9.833344420E0
1.226186935E0,1.208375469E-1,-1.896311939E-1,9.821938515E0,9.824512094E0
1.228701518E0,6.819544733E-2,-1.848455518E-1,9.836296082E0,9.838269111E0
1.231216154E0,8.255238086E-2,-1.513460279E-1,9.841081619E0,9.842591526E0
1.233730789E0,1.208375469E-1,-1.513460279E-1,9.850652695E0,9.852556310E0
1.236245372E0,1.064806059E-1,-1.465603858E-1,9.788438797E0,9.790115022E0
1.238127247E0,6.340979785E-2,-1.513460279E-1,9.855438232E0,9.856804207E0
1.240641779E0,8.733802289E-2,-1.322034448E-1,9.826724052E0,9.828001388E0
1.243156414E0,8.733802289E-2,-1.848455518E-1,9.817152977E0,9.819281460E0
1.245670997E0,8.733802289E-2,-1.704886109E-1,9.793225288E0,9.795098562E0
1.248185633E0,9.690931439E-2,-1.609173268E-1,9.817152977E0,9.818949963E0
1.250700268E0,9.690931439E-2,-1.752742529E-1,9.841081619E0,9.843119420E0
1.253214852E0,1.016949639E-1,-1.752742529E-1,9.821938515E0,9.824028660E0
1.255729435E0,7.298108935E-2,-1.704886109E-1,9.841081619E0,9.842828864E0
1.258244018E0,1.160518974E-1,-1.752742529E-1,9.812367439E0,9.814618886E0
1.260758654E0,9.690931439E-2,-1.800599098E-1,9.798010826E0,9.800144343E0
1.263273289E0,1.016949639E-1,-1.800599098E-1,9.841081619E0,9.843254080E0
1.265787872E0,6.819544733E-2,-1.752742529E-1,9.793225288E0,9.795031048E0
1.267663133E0,1.112662554E-1,-1.609173268E-1,9.812367439E0,9.814317568E0
1.270177716E0,7.776673883E-2,-1.513460279E-1,9.865009308E0,9.866476673E0
1.272692300E0,7.776673883E-2,-1.561316848E-1,9.845867157E0,9.847412089E0
1.275206883E0,1.112662554E-1,-1.704886109E-1,9.826724052E0,9.828832695E0
1.277721518E0,1.351944804E-1,-1.465603858E-1,9.817152977E0,9.819177668E0
1.280236154E0,6.819544733E-2,-1.513460279E-1,9.831509590E0,9.832910915E0
1.282750737E0,1.208375469E-1,-1.609173268E-1,9.888937950E0,9.890985284E0
1.285265320E0,1.016949639E-1,-1.417747438E-1,9.850652695E0,9.852197747E0
1.287779956E0,8.255238086E-2,-1.657029688E-1,9.845867157E0,9.847607448E0
1.290294539E0,8.255238086E-2,-1.513460279E-1,9.821938515E0,9.823451364E0
1.292809175E0,1.112662554E-1,-1.704886109E-1,9.860223770E0,9.862325250E0
1.295323758E0,7.776673883E-2,-1.513460279E-1,9.855438232E0,9.856907022E0
1.297203810E0,1.064806059E-1,-1.417747438E-1,9.865009308E0,9.866602599E0
1.299718393E0,1.447657645E-1,-1.800599098E-1,9.879366875E0,9.882068030E0
1.302232977E0,9.690931439E-2,-2.087737769E-1,9.831509590E0,9.834203513E0
1.304747612E0,1.208375469E-1,-1.609173268E-1,9.826724052E0,9.828784345E0
1.307262195E0,8.733802289E-2,-1.992024779E-1,9.845867157E0,9.848269372E0
1.309776779E0,8.255238086E-2,-1.657029688E-1,9.869794846E0,9.871530918E0
1.312291414E0,9.690931439E-2,-1.561316848E-1,9.845867157E0,9.847581865E0
1.314805997E0,8.733802289E-2,-1.752742529E-1,9.798010826E0,9.799967609E0
1.317320633E0,9.690931439E-2,-1.657029688E-1,9.821938515E0,9.823814182E0
1.319835216E0,8.733802289E-2,-1.561316848E-1,9.841081619E0,9.842707578E0
1.322349852E0,6.819544733E-2,-1.944168359E-1,9.802796364E0,9.804961248E0
1.324864435E0,9.212367237E-2,-1.752742529E-1,9.807581902E0,9.809580551E0
1.326747247E0,8.255238086E-2,-1.609173268E-1,9.821938515E0,9.823603487E0
1.329261831E0,9.690931439E-2,-1.609173268E-1,9.821938515E0,9.823734625E0
1.331776414E0,9.690931439E-2,-1.800599098E-1,9.788438797E0,9.790574399E0
1.334291050E0,8.733802289E-2,-1.944168359E-1,9.783653259E0,9.785974501E0
1.336805633E0,9.212367237E-2,-2.087737769E-1,9.826724052E0,9.829373269E0
1.339320268E0,9.212367237E-2,-2.039881349E-1,9.807581902E0,9.810135610E0
1.341834852E0,1.112662554E-1,-1.800599098E-1,9.778867722E0,9.781158197E0
1.344349435E0,8.733802289E-2,-1.752742529E-1,9.812367439E0,9.814321360E0
1.346864070E0,8.733802289E-2,-2.039881349E-1,9.821938515E0,9.824444782E0
1.349378654E0,1.016949639E-1,-2.374876440E-1,9.821938515E0,9.825335538E0
1.351893289E0,7.776673883E-2,-2.183450609E-1,9.807581902E0,9.810320330E0
1.354407872E0,1.112662554E-1,-1.992024779E-1,9.774082184E0,9.776745079E0
1.356290685E0,9.212367237E-2,-1.609173268E-1,9.821938515E0,9.823688581E0
1.358805268E0,1.304088384E-1,-1.992024779E-1,9.802796364E0,9.805687362E0
1.361319852E0,1.064806059E-1,-1.896311939E-1,9.817152977E0,9.819561634E0
1.363834487E0,1.064806059E-1,-1.800599098E-1,9.821938515E0,9.824165913E0
1.366349070E0,1.064806059E-1,-1.896311939E-1,9.826724052E0,9.829130364E0
1.368863706E0,1.016949639E-1,-1.848455518E-1,9.836296082E0,9.838558347E0
1.371378289E0,1.208375469E-1,-1.322034448E-1,9.831509590E0,9.833140917E0
1.373892872E0,1.064806059E-1,-1.704886109E-1,9.821938515E0,9.823995148E0
1.376407508E0,8.733802289E-2,-1.800599098E-1,9.798010826E0,9.800054370E0
1.378922091E0,8.255238086E-2,-1.896311939E-1,9.850652695E0,9.852823626E0
1.381436727E0,8.733802289E-2,-1.896311939E-1,9.836296082E0,9.838511499E0
1.383951310E0,7.776673883E-2,-1.896311939E-1,9.821938515E0,9.824076742E0
1.385834695E0,9.212367237E-2,-1.848455518E-1,9.812367439E0,9.814540713E0
1.388349279E0,1.112662554E-1,-1.752742529E-1,9.841081619E0,9.843271239E0
1.390863862E0,6.819544733E-2,-1.657029688E-1,9.826724052E0,9.828357630E0
1.393378497E0,7.298108935E-2,-1.752742529E-1,9.798010826E0,9.799850175E0
1.395893081E0,9.690931439E-2,-1.752742529E-1,9.826724052E0,9.828764830E0
1.398407716E0,8.733802289E-2,-1.848455518E-1,9.821938515E0,9.824065960E0
1.400922300E0,9.212367237E-2,-1.848455518E-1,9.764511108E0,9.766695031E0
1.403436883E0,1.160518974E-1,-2.087737769E-1,9.826724052E0,9.829626653E0
1.405951518E0,1.112662554E-1,-2.135594189E-1,9.793225288E0,9.796185449E0
1.408466102E0,1.016949639E-1,-1.800599098E-1,9.836296082E0,9.838469598E0
1.410980737E0,7.298108935E-2,-1.752742529E-1,9.845867157E0,9.847697567E0
1.413495320E0,1.160518974E-1,-1.752742529E-1,9.807581902E0,9.809834446E0
1.415380425E0,7.298108935E-2,-1.609173268E-1,9.836296082E0,9.837882965E0
1.417895008E0,8.733802289E-2,-1.752742529E-1,9.821938515E0,9.823890532E0
1.420409591E0,8.733802289E-2,-1.704886109E-1,9.855438232E0,9.857299683E0
1.422924227E0,9.212367237E-2,-1.657029688E-1,9.850652695E0,9.852476986E0
1.425438810E0,1.016949639E-1,-1.513460279E-1,9.807581902E0,9.809276744E0
1.427953445E0,9.212367237E-2,-1.609173268E-1,9.826724052E0,9.828473267E0
1.430468029E0,5.862415582E-2,-1.609173268E-1,9.826724052E0,9.828216358E0
1.432982612E0,7.298108935E-2,-1.417747438E-1,9.807581902E0,9.808878074E0
1.435497247E0,1.016949639E-1,-1.657029688E-1,9.798010826E0,9.799939566E0
1.438011831E0,1.112662554E-1,-1.513460279E-1,9.821938515E0,9.823734625E0
1.440526466E0,5.383851007E-2,-1.417747438E-1,9.821938515E0,9.823109225E0
1.443041050E0,9.690931439E-2,-1.800599098E-1,9.826724052E0,9.828851336E0
1.444921310E0,8.733802289E-2,-1.704886109E-1,9.855438232E0,9.857299683E0
1.447435893E0,5.862415582E-2,-1.800599098E-1,9.831509590E0,9.833333066E0
1.449950477E0,1.016949639E-1,-1.561316848E-1,9.836296082E0,9.838060763E0
1.452465112E0,1.016949639E-1,-1.800599098E-1,9.841081619E0,9.843254080E0
1.454979695E0,9.690931439E-2,-1.609173268E-1,9.826724052E0,9.828519288E0
1.457494331E0,1.064806059E-1,-1.609173268E-1,9.836296082E0,9.838188508E0
1.460008914E0,1.112662554E-1,-1.609173268E-1,9.831509590E0,9.833455923E0
1.462523497E0,1.304088384E-1,-1.848455518E-1,9.865009308E0,9.867602697E0
1.465038133E0,1.016949639E-1,-1.752742529E-1,9.850652695E0,9.852736749E0
1.467552716E0,1.016949639E-1,-1.465603858E-1,9.865009308E0,9.866622039E0
1.470067352E0,8.733802289E-2,-1.752742529E-1,9.850652695E0,9.852599023E0
1.472581935E0,9.212367237E-2,-1.848455518E-1,9.812367439E0,9.814540713E0
1.474456414E0,6.819544733E-2,-1.704886109E-1,9.821938515E0,9.823654777E0
1.476971050E0,9.212367237E-2,-1.752742529E-1,9.807581902E0,9.809580551E0
1.479485633E0,1.112662554E-1,-1.322034448E-1,9.783653259E0,9.785179049E0
1.482000268E0,7.776673883E-2,-1.704886109E-1,9.845867157E0,9.847650182E0
1.484514852E0,8.255238086E-2,-1.848455518E-1,9.826724052E0,9.828809103E0
1.487029487E0,9.212367237E-2,-1.561316848E-1,9.836296082E0,9.837966481E0
1.489544070E0,8.733802289E-2,-1.465603858E-1,9.874580383E0,9.876054153E0
1.492058654E0,1.495514214E-1,-1.657029688E-1,9.874580383E0,9.877102857E0
1.494573289E0,1.160518974E-1,-1.513460279E-1,9.869794846E0,9.871637349E0
1.497087872E0,6.819544733E-2,-1.609173268E-1,9.845867157E0,9.847418194E0
1.499602508E0,8.733802289E-2,-1.704886109E-1,9.841081619E0,9.842945785E0
1.502117091E0,1.064806059E-1,-1.513460279E-1,9.841081619E0,9.842821302E0
1.504005997E0,9.690931439E-2,-1.848455518E-1,9.826724052E0,9.828940172E0
1.506520581E0,6.819544733E-2,-1.800599098E-1,9.879366875E0,9.881242940E0
1.509035164E0,1.016949639E-1,-1.752742529E-1,9.798010826E0,9.800106075E0
1.511549800E0,8.733802289E-2,-1.513460279E-1,9.831509590E0,9.833062309E0
1.514064383E0,8.733802289E-2,-1.896311939E-1,9.793225288E0,9.795450447E0
1.516579018E0,1.399801224E-1,-1.657029688E-1,9.821938515E0,9.824333468E0
1.519093602E0,1.016949639E-1,-1.944168359E-1,9.826724052E0,9.829173179E0
1.521608185E0,1.016949639E-1,-1.800599098E-1,9.802796364E0,9.804977307E0
1.524122820E0,1.543370634E-1,-1.657029688E-1,9.788438797E0,9.791057731E0
1.526637404E0,1.064806059E-1,-1.800599098E-1,9.793225288E0,9.795459215E0
1.529152039E0,8.255238086E-2,-1.800599098E-1,9.812367439E0,9.814366573E0
1.531666622E0,1.208375469E-1,-2.039881349E-1,9.812367439E0,9.815231410E0
1.533548966E0,8.255238086E-2,-1.800599098E-1,9.783653259E0,9.785658259E0
1.536063550E0,7.776673883E-2,-1.752742529E-1,9.807581902E0,9.809456228E0
1.538578133E0,1.016949639E-1,-1.752742529E-1,9.841081619E0,9.843167700E0
1.541092768E0,7.776673883E-2,-1.609173268E-1,9.826724052E0,9.828349183E0
1.543607352E0,7.298108935E-2,-1.992024779E-1,9.826724052E0,9.829013860E0
1.546121987E0,1.208375469E-1,-1.944168359E-1,9.788438797E0,9.791115039E0
1.548636570E0,1.112662554E-1,-1.752742529E-1,9.793225288E0,9.795425605E0
1.551151154E0,1.112662554E-1,-2.231307179E-1,9.845867157E0,9.849023686E0
1.553665789E0,9.690931439E-2,-1.992024779E-1,9.821938515E0,9.824436331E0
1.556180372E0,9.212367237E-2,-2.135594189E-1,9.798010826E0,9.800770916E0
1.558695008E0,9.212367237E-2,-1.944168359E-1,9.821938515E0,9.824294421E0
1.561209591E0,5.383851007E-2,-1.896311939E-1,9.845867157E0,9.847840304E0
1.563090268E0,7.298108935E-2,-2.039881349E-1,9.865009308E0,9.867388005E0
1.565604852E0,1.208375469E-1,-1.848455518E-1,9.831509590E0,9.833989547E0
1.568119435E0,1.256231815E-1,-1.561316848E-1,9.831509590E0,9.833551704E0
1.570634070E0,1.016949639E-1,-1.752742529E-1,9.860223770E0,9.862305802E0
1.573148654E0,1.016949639E-1,-1.848455518E-1,9.831509590E0,9.833772957E0
1.575663289E0,5.862415582E-2,-1.992024779E-1,9.788438797E0,9.790641067E0
1.578177872E0,8.733802289E-2,-1.896311939E-1,9.778867722E0,9.781096147E0
1.580692456E0,1.304088384E-1,-1.561316848E-1,9.850652695E0,9.852753020E0
1.583207091E0,9.690931439E-2,-1.752742529E-1,9.850652695E0,9.852688516E0
1.585721675E0,1.208375469E-1,-1.561316848E-1,9.821938515E0,9.823922587E0
1.588236310E0,1.160518974E-1,-1.561316848E-1,9.831509590E0,9.833434088E0
1.590750893E0,1.256231815E-1,-1.704886109E-1,9.831509590E0,9.833790133E0
1.592636779E0,8.733802289E-2,-1.800599098E-1,9.807581902E0,9.809623451E0
1.595151362E0,1.016949639E-1,-2.039881349E-1,9.821938515E0,9.824582903E0
1.597665945E0,8.733802289E-2,-1.752742529E-1,9.826724052E0,9.828675119E0
1.600180581E0,1.256231815E-1,-1.609173268E-1,9.845867157E0,9.847983329E0
1.602695164E0,1.016949639E-1,-1.417747438E-1,9.817152977E0,9.818703301E0
1.605209800E0,5.862415582E-2,-1.848455518E-1,9.845867157E0,9.847776640E0
1.607724383E0,1.016949639E-1,-1.752742529E-1,9.836296082E0,9.838383177E0
1.610238966E0,9.690931439E-2,-1.465603858E-1,9.865009308E0,9.866573874E0
1.612753550E0,8.733802289E-2,-1.896311939E-1,9.865009308E0,9.867218279E0
1.615268185E0,1.016949639E-1,-1.896311939E-1,9.831509590E0,9.833864077E0
1.617782820E0,8.255238086E-2,-1.513460279E-1,9.831509590E0,9.833020967E0
1.620297404E0,4.905286431E-2,-1.800599098E-1,9.821938515E0,9.823711312E0
1.622180425E0,8.255238086E-2,-1.369891018E-1,9.855438232E0,9.856735954E0
1.624695008E0,8.255238086E-2,-1.609173268E-1,9.874580383E0,9.876236481E0
1.627209591E0,8.255238086E-2,-1.704886109E-1,9.869794846E0,9.871612409E0
1.629724227E0,1.064806059E-1,-1.848455518E-1,9.831509590E0,9.833823611E0
1.632238810E0,1.208375469E-1,-1.657029688E-1,9.860223770E0,9.862356310E0
1.634753445E0,6.340979785E-2,-1.513460279E-1,9.831509590E0,9.832878889E0
1.637268029E0,6.340979785E-2,-1.704886109E-1,9.836296082E0,9.837977829E0
1.639782612E0,9.212367237E-2,-1.465603858E-1,9.831509590E0,9.833033486E0
1.642297247E0,1.064806059E-1,-1.465603858E-1,9.793225288E0,9.794900695E0
1.644811831E0,8.733802289E-2,-1.465603858E-1,9.802796364E0,9.804280924E0
1.647326466E0,9.212367237E-2,-1.896311939E-1,9.841081619E0,9.843339586E0
1.649841050E0,1.160518974E-1,-1.704886109E-1,9.812367439E0,9.814534588E0
1.651725425E0,9.690931439E-2,-1.704886109E-1,9.807581902E0,9.809542320E0
1.654240008E0,9.690931439E-2,-1.657029688E-1,9.855438232E0,9.857307525E0
1.656754591E0,1.112662554E-1,-1.657029688E-1,9.812367439E0,9.814397201E0
1.659269227E0,1.208375469E-1,-1.704886109E-1,9.831509590E0,9.833730162E0
1.661783810E0,1.112662554E-1,-1.417747438E-1,9.850652695E0,9.852301192E0
1.664298445E0,7.298108935E-2,-1.704886109E-1,9.826724052E0,9.828473849E0
1.666813029E0,1.160518974E-1,-1.800599098E-1,9.788438797E0,9.790782589E0
1.669327612E0,1.064806059E-1,-1.561316848E-1,9.798010826E0,9.799833232E0
1.671842247E0,1.016949639E-1,-1.561316848E-1,9.817152977E0,9.818921099E0
1.674356831E0,7.776673883E-2,-1.465603858E-1,9.812367439E0,9.813770039E0
1.676871466E0,1.016949639E-1,-1.561316848E-1,9.783653259E0,9.785427434E0
1.679386050E0,1.016949639E-1,-1.848455518E-1,9.812367439E0,9.814635220E0
1.681265112E0,1.064806059E-1,-1.704886109E-1,9.817152977E0,9.819210613E0
1.683779695E0,1.112662554E-1,-1.992024779E-1,9.826724052E0,9.829372686E0
1.686294279E0,1.064806059E-1,-1.992024779E-1,9.802796364E0,9.805398324E0
1.688808914E0,8.733802289E-2,-1.992024779E-1,9.817152977E0,9.819562217E0
1.691323497E0,7.298108935E-2,-1.704886109E-1,9.865009308E0,9.866752315E0
1.693838133E0,9.690931439E-2,-1.752742529E-1,9.860223770E0,9.862257616E0
1.696352716E0,1.064806059E-1,-1.848455518E-1,9.826724052E0,9.829039200E0
1.698867300E0,1.016949639E-1,-1.992024779E-1,9.836296082E0,9.838838554E0
1.701381935E0,1.399801224E-1,-1.752742529E-1,9.860223770E0,9.862774878E0
1.703896518E0,1.016949639E-1,-1.704886109E-1,9.817152977E0,9.819159883E0
1.706411154E0,6.819544733E-2,-1.944168359E-1,9.793225288E0,9.795392288E0
1.708925737E0,1.016949639E-1,-1.896311939E-1,9.826724052E0,9.829079685E0
1.710811310E0,6.819544733E-2,-1.657029688E-1,9.826724052E0,9.828357630E0
1.713325893E0,8.733802289E-2,-1.992024779E-1,9.831509590E0,9.833915313E0
1.715840477E0,1.304088384E-1,-1.848455518E-1,9.817152977E0,9.819759005E0
1.718355112E0,1.160518974E-1,-1.848455518E-1,9.855438232E0,9.857854669E0
1.720869695E0,1.064806059E-1,-1.896311939E-1,9.841081619E0,9.843484421E0
1.723384331E0,1.064806059E-1,-1.848455518E-1,9.826724052E0,9.829039200E0
1.725898914E0,8.733802289E-2,-1.704886109E-1,9.817152977E0,9.819021686E0
1.728413497E0,7.776673883E-2,-1.800599098E-1,9.836296082E0,9.838251361E0
1.730928133E0,8.255238086E-2,-1.657029688E-1,9.836296082E0,9.838038065E0
1.733442716E0,8.255238086E-2,-1.657029688E-1,9.831509590E0,9.833252422E0
1.735957352E0,1.208375469E-1,-1.800599098E-1,9.826724052E0,9.829116384E0
1.738471935E0,6.340979785E-2,-1.609173268E-1,9.826724052E0,9.828246069E0
1.740349018E0,7.298108935E-2,-1.704886109E-1,9.807581902E0,9.809335113E0
1.742863602E0,1.016949639E-1,-2.039881349E-1,9.817152977E0,9.819798654E0
1.745378185E0,1.016949639E-1,-1.704886109E-1,9.821938515E0,9.823944443E0
1.747892820E0,4.905286431E-2,-1.609173268E-1,9.821938515E0,9.823379091E0
1.750407404E0,6.340979785E-2,-1.417747438E-1,9.850652695E0,9.851876948E0
1.752922039E0,9.212367237E-2,-1.561316848E-1,9.855438232E0,9.857105388E0
1.755436622E0,1.064806059E-1,-1.561316848E-1,9.798010826E0,9.799833232E0
1.757951206E0,1.447657645E-1,-1.465603858E-1,9.850652695E0,9.852806483E0
1.760465841E0,9.690931439E-2,-1.896311939E-1,9.817152977E0,9.819462510E0
1.762980425E0,1.256231815E-1,-1.561316848E-1,9.831509590E0,9.833551704E0
1.765495060E0,9.690931439E-2,-1.657029688E-1,9.845867157E0,9.847738266E0
1.768009643E0,8.255238086E-2,-1.609173268E-1,9.802796364E0,9.804464587E0
1.769893914E0,1.208375469E-1,-1.800599098E-1,9.841081619E0,9.843470461E0
1.772408497E0,1.160518974E-1,-1.417747438E-1,9.817152977E0,9.818862495E0
1.774923081E0,1.160518974E-1,-1.609173268E-1,9.817152977E0,9.819157551E0
1.777437716E0,9.212367237E-2,-1.944168359E-1,9.821938515E0,9.824294421E0
1.779952300E0,8.733802289E-2,-1.896311939E-1,9.812367439E0,9.814588258E0
1.782466935E0,9.212367237E-2,-1.704886109E-1,9.831509590E0,9.833419240E0
1.784981518E0,8.733802289E-2,-1.657029688E-1,9.802796364E0,9.804585762E0
1.787496102E0,1.016949639E-1,-1.657029688E-1,9.807581902E0,9.809508759E0
1.790010737E0,9.212367237E-2,-1.561316848E-1,9.821938515E0,9.823611355E0
1.792525320E0,1.016949639E-1,-1.752742529E-1,9.836296082E0,9.838383177E0
1.795039956E0,6.819544733E-2,-1.752742529E-1,9.812367439E0,9.814169677E0
1.797554539E0,9.212367237E-2,-1.657029688E-1,9.845867157E0,9.847692335E0
1.799438497E0,1.016949639E-1,-1.657029688E-1,9.821938515E0,9.823862556E0
1.801953081E0,7.776673883E-2,-1.704886109E-1,9.821938515E0,9.823725883E0
1.804467664E0,1.064806059E-1,-1.704886109E-1,9.836296082E0,9.838349714E0
1.806982300E0,9.690931439E-2,-1.657029688E-1,9.850652695E0,9.852522895E0
1.809496883E0,8.255238086E-2,-1.896311939E-1,9.821938515E0,9.824115791E0
1.812011518E0,1.016949639E-1,-1.896311939E-1,9.821938515E0,9.824295295E0
1.814526102E0,8.255238086E-2,-1.848455518E-1,9.841081619E0,9.843163628E0
1.817040685E0,8.733802289E-2,-1.657029688E-1,9.831509590E0,9.833293763E0
1.819555320E0,9.212367237E-2,-1.657029688E-1,9.812367439E0,9.814198847E0
1.822069904E0,7.776673883E-2,-1.561316848E-1,9.836296082E0,9.837842516E0
1.824584539E0,9.212367237E-2,-1.848455518E-1,9.836296082E0,9.838464070E0
1.827099122E0,1.064806059E-1,-1.704886109E-1,9.826724052E0,9.828779685E0
1.828981310E0,8.255238086E-2,-1.704886109E-1,9.855438232E0,9.857258443E0
1.831495893E0,9.690931439E-2,-1.513460279E-1,9.826724052E0,9.828367242E0
1.834010477E0,9.690931439E-2,-1.609173268E-1,9.802796364E0,9.804595981E0
1.836525112E0,9.212367237E-2,-1.609173268E-1,9.812367439E0,9.814119213E0
1.839039695E0,8.733802289E-2,-1.465603858E-1,9.865009308E0,9.866484507E0
1.841554331E0,1.064806059E-1,-1.513460279E-1,9.821938515E0,9.823681587E0
1.844068914E0,1.064806059E-1,-1.417747438E-1,9.802796364E0,9.804399765E0
1.846583497E0,1.112662554E-1,-1.609173268E-1,9.826724052E0,9.828671333E0
1.849098133E0,9.690931439E-2,-1.896311939E-1,9.850652695E0,9.852954375E0
1.851612716E0,1.112662554E-1,-1.322034448E-1,9.817152977E0,9.818673561E0
1.854127352E0,1.016949639E-1,-1.561316848E-1,9.793225288E0,9.794997729E0
1.856641935E0,1.208375469E-1,-1.944168359E-1,9.869794846E0,9.872449033E0
1.858524643E0,8.733802289E-2,-1.609173268E-1,9.826724052E0,9.828429575E0
1.861039227E0,4.426721856E-2,-1.704886109E-1,9.817152977E0,9.818733041E0
1.863553810E0,6.819544733E-2,-1.896311939E-1,9.855438232E0,9.857498332E0
1.866068445E0,9.690931439E-2,-1.752742529E-1,9.793225288E0,9.795273045E0
1.868583029E0,1.399801224E-1,-1.944168359E-1,9.826724052E0,9.829643836E0
1.871097664E0,1.256231815E-1,-2.135594189E-1,9.836296082E0,9.839416111E0
1.873612247E0,9.212367237E-2,-2.087737769E-1,9.888937950E0,9.891570504E0
1.876126831E0,9.212367237E-2,-1.896311939E-1,9.855438232E0,9.857692910E0
1.878641466E0,1.256231815E-1,-1.800599098E-1,9.836296082E0,9.838746026E0
1.881156050E0,9.690931439E-2,-1.800599098E-1,9.841081619E0,9.843205800E0
1.883670685E0,6.819544733E-2,-1.944168359E-1,9.807581902E0,9.809745730E0
1.886185268E0,7.776673883E-2,-2.087737769E-1,9.831509590E0,9.834033505E0
1.888065529E0,9.690931439E-2,-1.944168359E-1,9.831509590E0,9.833909199E0
1.890580112E0,8.255238086E-2,-1.896311939E-1,9.841081619E0,9.843254661E0
1.893094695E0,1.016949639E-1,-2.279163599E-1,9.831509590E0,9.834676840E0
1.895609331E0,4.905286431E-2,-1.896311939E-1,9.855438232E0,9.857384487E0
1.898123914E0,7.776673883E-2,-1.465603858E-1,9.841081619E0,9.842480127E0
1.900638550E0,1.351944804E-1,-1.561316848E-1,9.807581902E0,9.809756236E0
1.903153133E0,1.112662554E-1,-1.752742529E-1,9.798010826E0,9.800210069E0
1.905667716E0,9.690931439E-2,-1.465603858E-1,9.826724052E0,9.828294713E0
1.908182352E0,1.208375469E-1,-1.704886109E-1,9.845867157E0,9.848084492E0
1.910696935E0,1.016949639E-1,-1.704886109E-1,9.812367439E0,9.814375324E0
1.913211570E0,6.819544733E-2,-1.896311939E-1,9.817152977E0,9.819221109E0
1.915726154E0,7.298108935E-2,-1.465603858E-1,9.817152977E0,9.818518155E0
1.917610112E0,8.733802289E-2,-1.800599098E-1,9.807581902E0,9.809623451E0
1.920124695E0,8.733802289E-2,-1.800599098E-1,9.865009308E0,9.867038976E0
1.922639279E0,8.733802289E-2,-1.274178028E-1,9.845867157E0,9.847078922E0
1.925153914E0,1.064806059E-1,-1.274178028E-1,9.798010826E0,9.799417818E0
1.927668497E0,8.733802289E-2,-1.657029688E-1,9.812367439E0,9.814155092E0
1.930183133E0,1.064806059E-1,-1.704886109E-1,9.831509590E0,9.833564222E0
1.932697716E0,1.064806059E-1,-1.704886109E-1,9.841081619E0,9.843134253E0
1.935212300E0,1.064806059E-1,-2.087737769E-1,9.807581902E0,9.810381612E0
1.937726935E0,1.016949639E-1,-2.039881349E-1,9.793225288E0,9.795877427E0
1.940241518E0,1.016949639E-1,-1.609173268E-1,9.802796364E0,9.804644451E0
1.942756154E0,7.776673883E-2,-1.848455518E-1,9.802796364E0,9.804847377E0
1.945270737E0,8.733802289E-2,-1.752742529E-1,9.826724052E0,9.828675119E0
1.947156779E0,1.016949639E-1,-1.561316848E-1,9.817152977E0,9.818921099E0
1.949671362E0,1.208375469E-1,-1.513460279E-1,9.807581902E0,9.809493875E0
1.952185945E0,8.733802289E-2,-1.657029688E-1,9.817152977E0,9.818939758E0
1.954700581E0,7.776673883E-2,-1.752742529E-1,9.798010826E0,9.799886983E0
1.957215164E0,1.016949639E-1,-1.848455518E-1,9.807581902E0,9.809850789E0
1.959729800E0,8.733802289E-2,-1.704886109E-1,9.807581902E0,9.809452434E0
1.962244383E0,7.776673883E-2,-1.609173268E-1,9.821938515E0,9.823564437E0
1.964758966E0,8.255238086E-2,-1.992024779E-1,9.817152977E0,9.819520818E0
1.967273602E0,1.064806059E-1,-1.561316848E-1,9.788438797E0,9.790262984E0
1.969788185E0,9.690931439E-2,-1.800599098E-1,9.836296082E0,9.838421296E0
1.972302820E0,9.690931439E-2,-2.039881349E-1,9.812367439E0,9.814965988E0
1.974817352E0,1.064806059E-1,-1.752742529E-1,9.836296082E0,9.838433808E0
1.976699018E0,1.304088384E-1,-1.609173268E-1,9.817152977E0,9.819337728E0
1.979213602E0,1.112662554E-1,-1.848455518E-1,9.798010826E0,9.800385921E0
1.981728185E0,8.255238086E-2,-1.752742529E-1,9.821938515E0,9.823849151E0
1.984242820E0,9.212367237E-2,-1.465603858E-1,9.836296082E0,9.837819236E0
1.986757404E0,1.208375469E-1,-1.704886109E-1,9.845867157E0,9.848084492E0
1.989272039E0,1.351944804E-1,-1.704886109E-1,9.850652695E0,9.853055487E0
1.991786622E0,8.733802289E-2,-1.704886109E-1,9.826724052E0,9.828590942E0
1.994301206E0,7.776673883E-2,-1.609173268E-1,9.817152977E0,9.818779691E0
1.996815841E0,7.298108935E-2,-1.752742529E-1,9.812367439E0,9.814204097E0
1.999330425E0,8.255238086E-2,-1.800599098E-1,9.826724052E0,9.828720266E0
2.001845060E0,1.016949639E-1,-1.848455518E-1,9.845867157E0,9.848127224E0
2.004359643E0,9.690931439E-2,-1.848455518E-1,9.831509590E0,9.833724631E0
2.006239591E0,9.690931439E-2,-1.992024779E-1,9.831509590E0,9.834004976E0
2.008754175E0,9.212367237E-2,-1.704886109E-1,9.821938515E0,9.823850026E0
2.011268758E0,9.212367237E-2,-1.609173268E-1,9.831509590E0,9.833257953E0
2.013783393E0,9.212367237E-2,-1.800599098E-1,9.821938515E0,9.824020792E0
2.016297977E0,1.016949639E-1,-1.848455518E-1,9.807581902E0,9.809850789E0
2.018812612E0,8.255238086E-2,-1.944168359E-1,9.845867157E0,9.848132456E0
2.021327195E0,8.733802289E-2,-1.704886109E-1,9.821938515E0,9.823806313E0
2.023841779E0,1.160518974E-1,-1.896311939E-1,9.841081619E0,9.843592610E0
2.026356414E0,1.064806059E-1,-1.752742529E-1,9.817152977E0,9.819294871E0
2.028870997E0,1.064806059E-1,-1.896311939E-1,9.831509590E0,9.833914731E0
2.031385633E0,1.016949639E-1,-1.561316848E-1,9.793225288E0,9.794997729E0
2.033900216E0,1.016949639E-1,-1.752742529E-1,9.812367439E0,9.814459623E0
2.035784122E0,6.340979785E-2,-2.135594189E-1,9.841081619E0,9.843602789E0
2.038298706E0,6.819544733E-2,-1.896311939E-1,9.821938515E0,9.824005639E0
2.040813289E0,1.112662554E-1,-1.848455518E-1,9.850652695E0,9.853015100E0
2.043327925E0,1.016949639E-1,-1.896311939E-1,9.841081619E0,9.843433816E0
2.045842508E0,8.255238086E-2,-1.752742529E-1,9.850652695E0,9.852557763E0
2.048357143E0,8.733802289E-2,-1.896311939E-1,9.836296082E0,9.838511499E0
2.050871727E0,1.256231815E-1,-1.800599098E-1,9.802796364E0,9.805254678E0
2.053386310E0,1.064806059E-1,-1.848455518E-1,9.817152977E0,9.819470381E0
2.055900945E0,1.064806059E-1,-1.704886109E-1,9.788438797E0,9.790502468E0
2.058415529E0,9.690931439E-2,-1.896311939E-1,9.831509590E0,9.833815751E0
2.060930164E0,9.212367237E-2,-1.752742529E-1,9.841081619E0,9.843073467E0
2.063444747E0,9.690931439E-2,-1.417747438E-1,9.817152977E0,9.818654901E0
2.065328237E0,7.298108935E-2,-1.274178028E-1,9.764511108E0,9.765615123E0
2.067842820E0,1.208375469E-1,-1.657029688E-1,9.841081619E0,9.843218306E0
2.070357404E0,1.351944804E-1,-1.752742529E-1,9.855438232E0,9.857923786E0
2.072872039E0,7.298108935E-2,-1.513460279E-1,9.821938515E0,9.823375593E0
2.075386622E0,1.016949639E-1,-1.513460279E-1,9.821938515E0,9.823630880E0
2.077901258E0,1.112662554E-1,-1.800599098E-1,9.807581902E0,9.809865672E0
2.080415841E0,1.064806059E-1,-1.800599098E-1,9.812367439E0,9.814597009E0
2.082930425E0,1.064806059E-1,-1.848455518E-1,9.812367439E0,9.814685974E0
2.085445060E0,9.212367237E-2,-1.465603858E-1,9.802796364E0,9.804324723E0
2.087959643E0,1.351944804E-1,-1.848455518E-1,9.831509590E0,9.834176440E0
2.090474279E0,1.016949639E-1,-1.896311939E-1,9.845867157E0,9.848218211E0
2.092988862E0,1.256231815E-1,-1.704886109E-1,9.817152977E0,9.819436854E0
2.094867820E0,1.351944804E-1,-1.417747438E-1,9.826724052E0,9.828676576E0
2.097382404E0,1.160518974E-1,-1.704886109E-1,9.783653259E0,9.785826767E0
2.099896987E0,1.304088384E-1,-1.704886109E-1,9.807581902E0,9.809930458E0
2.102411622E0,1.064806059E-1,-1.561316848E-1,9.793225288E0,9.795048584E0
2.104926206E0,8.255238086E-2,-1.704886109E-1,9.841081619E0,9.842904485E0
2.107440841E0,8.733802289E-2,-1.704886109E-1,9.812367439E0,9.814237059E0
2.109955425E0,9.212367237E-2,-1.944168359E-1,9.821938515E0,9.824294421E0
2.112470008E0,8.733802289E-2,-1.609173268E-1,9.817152977E0,9.818860162E0
2.114984643E0,7.776673883E-2,-1.417747438E-1,9.807581902E0,9.808914848E0
2.117499227E0,6.340979785E-2,-1.752742529E-1,9.802796364E0,9.804568242E0
2.120013862E0,7.776673883E-2,-1.800599098E-1,9.841081619E0,9.843035948E0
2.122528445E0,1.112662554E-1,-1.369891018E-1,9.826724052E0,9.828308695E0
2.124415320E0,8.255238086E-2,-1.848455518E-1,9.798010826E0,9.800101985E0
2.126929904E0,6.819544733E-2,-1.704886109E-1,9.831509590E0,9.833224182E0
2.129444487E0,9.690931439E-2,-1.561316848E-1,9.821938515E0,9.823657400E0
2.131959122E0,8.255238086E-2,-2.087737769E-1,9.879366875E0,9.881917386E0
2.134473706E0,1.064806059E-1,-1.800599098E-1,9.821938515E0,9.824165913E0
2.136988341E0,1.064806059E-1,-1.657029688E-1,9.841081619E0,9.843052526E0
2.139502925E0,8.733802289E-2,-1.657029688E-1,9.845867157E0,9.847648728E0
2.142017508E0,1.016949639E-1,-1.800599098E-1,9.798010826E0,9.800192834E0
2.144532143E0,7.776673883E-2,-1.752742529E-1,9.793225288E0,9.795102362E0
2.147046727E0,6.819544733E-2,-1.561316848E-1,9.769296646E0,9.770782194E0
2.149561362E0,8.733802289E-2,-1.369891018E-1,9.841081619E0,9.842422536E0
2.152075945E0,9.690931439E-2,-1.609173268E-1,9.812367439E0,9.814165301E0
2.153952247E0,7.776673883E-2,-1.657029688E-1,9.845867157E0,9.847568492E0
2.156466831E0,9.212367237E-2,-1.800599098E-1,9.855438232E0,9.857513434E0
2.158981414E0,7.298108935E-2,-2.039881349E-1,9.831509590E0,9.833896391E0
2.161496050E0,8.733802289E-2,-1.848455518E-1,9.850652695E0,9.852773940E0
2.164010633E0,6.819544733E-2,-1.752742529E-1,9.836296082E0,9.838093936E0
2.166525268E0,9.212367237E-2,-1.752742529E-1,9.845867157E0,9.847858037E0
2.169039852E0,1.016949639E-1,-1.944168359E-1,9.836296082E0,9.838742825E0
2.171554435E0,1.112662554E-1,-1.800599098E-1,9.821938515E0,9.824218948E0
2.174069070E0,9.690931439E-2,-1.848455518E-1,9.817152977E0,9.819371256E0
2.176583654E0,9.212367237E-2,-1.561316848E-1,9.798010826E0,9.799687751E0
2.179098289E0,1.160518974E-1,-1.465603858E-1,9.845867157E0,9.847641751E0
2.181612872E0,1.016949639E-1,-1.848455518E-1,9.845867157E0,9.848127224E0
2.183500893E0,7.298108935E-2,-2.087737769E-1,9.836296082E0,9.838782106E0
2.186015477E0,7.298108935E-2,-1.609173268E-1,9.831509590E0,9.833097246E0
2.188530060E0,8.733802289E-2,-1.609173268E-1,9.836296082E0,9.837999945E0
2.191044695E0,9.690931439E-2,-1.800599098E-1,9.807581902E0,9.809713336E0
2.193559279E0,9.690931439E-2,-1.944168359E-1,9.826724052E0,9.829124830E0
2.196073914E0,7.776673883E-2,-2.087737769E-1,9.860223770E0,9.862740337E0
2.198588497E0,1.160518974E-1,-1.609173268E-1,9.817152977E0,9.819157551E0
2.201103081E0,7.776673883E-2,-1.609173268E-1,9.821938515E0,9.823564437E0
2.203617716E0,8.255238086E-2,-1.848455518E-1,9.826724052E0,9.828809103E0
2.206132300E0,9.690931439E-2,-1.752742529E-1,9.821938515E0,9.823980286E0
2.208646935E0,1.064806059E-1,-1.513460279E-1,9.807581902E0,9.809327525E0
2.211161518E0,1.016949639E-1,-1.800599098E-1,9.831509590E0,9.833684165E0
2.213042508E0,8.733802289E-2,-1.944168359E-1,9.831509590E0,9.833819536E0
2.215557091E0,9.690931439E-2,-1.704886109E-1,9.841081619E0,9.843035366E0
2.218071675E0,9.212367237E-2,-1.369891018E-1,9.817152977E0,9.818540898E0
2.220586310E0,9.212367237E-2,-1.752742529E-1,9.812367439E0,9.814365114E0
2.223100893E0,9.690931439E-2,-1.992024779E-1,9.812367439E0,9.814867692E0
2.225615529E0,9.212367237E-2,-1.800599098E-1,9.817152977E0,9.819236269E0
2.228130112E0,8.255238086E-2,-1.896311939E-1,9.812367439E0,9.814546839E0
2.230644695E0,1.016949639E-1,-1.657029688E-1,9.807581902E0,9.809508759E0
2.233159331E0,8.255238086E-2,-1.465603858E-1,9.812367439E0,9.813809128E0
2.235673914E0,1.064806059E-1,-2.135594189E-1,9.759725571E0,9.762642519E0
2.238188550E0,9.212367237E-2,-2.039881349E-1,9.821938515E0,9.824488491E0
2.240703133E0,8.255238086E-2,-1.561316848E-1,9.817152977E0,9.818741496E0
2.242588654E0,9.212367237E-2,-1.561316848E-1,9.841081619E0,9.842751206E0
2.245103237E0,1.160518974E-1,-1.657029688E-1,9.826724052E0,9.828806190E0
2.247617820E0,8.733802289E-2,-1.657029688E-1,9.821938515E0,9.823724426E0
2.250132456E0,6.819544733E-2,-1.944168359E-1,9.850652695E0,9.852807064E0
2.252647039E0,8.255238086E-2,-1.944168359E-1,9.845867157E0,9.848132456E0
2.255161675E0,9.212367237E-2,-1.896311939E-1,9.841081619E0,9.843339586E0
2.257676258E0,1.160518974E-1,-1.657029688E-1,9.802796364E0,9.804883583E0
2.260190841E0,8.733802289E-2,-1.800599098E-1,9.783653259E0,9.785699801E0
2.262705477E0,5.383851007E-2,-1.896311939E-1,9.812367439E0,9.814347321E0
2.265220060E0,8.255238086E-2,-1.657029688E-1,9.812367439E0,9.814113670E0
2.267734695E0,1.016949639E-1,-1.561316848E-1,9.783653259E0,9.785427434E0
2.270249279E0,1.160518974E-1,-1.800599098E-1,9.817152977E0,9.819489915E0
2.272139331E0,7.776673883E-2,-1.417747438E-1,9.836296082E0,9.837625138E0
2.274653914E0,7.298108935E-2,-1.704886109E-1,9.841081619E0,9.842828864E0
2.277168550E0,8.255238086E-2,-1.992024779E-1,9.812367439E0,9.814736435E0
2.279683185E0,7.776673883E-2,-1.704886109E-1,9.836296082E0,9.838080841E0
2.282197768E0,4.905286431E-2,-1.417747438E-1,9.817152977E0,9.818299182E0
2.284712352E0,1.208375469E-1,-1.609173268E-1,9.845867157E0,9.847923445E0
2.287226987E0,8.255238086E-2,-1.848455518E-1,9.869794846E0,9.871870799E0
2.289741570E0,8.255238086E-2,-1.561316848E-1,9.802796364E0,9.804387209E0
2.292256206E0,7.298108935E-2,-1.848455518E-1,9.841081619E0,9.843088009E0
2.294770789E0,7.298108935E-2,-1.704886109E-1,9.831509590E0,9.833258536E0
2.297285425E0,9.690931439E-2,-1.609173268E-1,9.821938515E0,9.823734625E0
2.299800008E0,9.690931439E-2,-1.896311939E-1,9.821938515E0,9.824246922E0
2.301682508E0,1.016949639E-1,-2.039881349E-1,9.817152977E0,9.819798654E0
2.304197091E0,6.340979785E-2,-1.752742529E-1,9.855438232E0,9.857200648E0
2.306711675E0,7.776673883E-2,-1.752742529E-1,9.860223770E0,9.862088092E0
2.309226310E0,8.255238086E-2,-1.800599098E-1,9.855438232E0,9.857428631E0
2.311740893E0,5.862415582E-2,-1.800599098E-1,9.874580383E0,9.876395907E0
2.314255477E0,8.733802289E-2,-1.704886109E-1,9.826724052E0,9.828590942E0
2.316770060E0,1.304088384E-1,-1.609173268E-1,9.841081619E0,9.843261060E0
2.319284695E0,5.862415582E-2,-1.609173268E-1,9.860223770E0,9.861711006E0
2.321799279E0,7.298108935E-2,-1.800599098E-1,9.821938515E0,9.823859934E0
2.324313914E0,9.212367237E-2,-1.752742529E-1,9.817152977E0,9.819149678E0
2.326828497E0,1.016949639E-1,-1.800599098E-1,9.845867157E0,9.848038562E0
2.329343133E0,9.212367237E-2,-1.609173268E-1,9.845867157E0,9.847612971E0
2.331224800E0,6.819544733E-2,-1.800599098E-1,9.865009308E0,9.866888103E0
2.333739383E0,9.690931439E-2,-1.800599098E-1,9.821938515E0,9.824066835E0
2.336253966E0,7.776673883E-2,-1.800599098E-1,9.802796364E0,9.804758324E0
2.338768602E0,9.690931439E-2,-1.896311939E-1,9.845867157E0,9.848169956E0
2.341283185E0,1.016949639E-1,-1.848455518E-1,9.807581902E0,9.809850789E0
2.343797820E0,1.112662554E-1,-1.274178028E-1,9.817152977E0,9.818610291E0
2.346312404E0,1.304088384E-1,-1.561316848E-1,9.807581902E0,9.809691449E0
2.348826987E0,1.208375469E-1,-1.848455518E-1,9.817152977E0,9.819636560E0
2.351341622E0,7.776673883E-2,-1.704886109E-1,9.778867722E0,9.780662961E0
2.353856206E0,8.255238086E-2,-1.800599098E-1,9.807581902E0,9.809582011E0
2.356370789E0,9.690931439E-2,-1.992024779E-1,9.817152977E0,9.819652011E0
2.358885425E0,1.064806059E-1,-1.752742529E-1,9.841081619E0,9.843218306E0
2.360768081E0,8.255238086E-2,-1.609173268E-1,9.836296082E0,9.837958624E0
2.363282612E0,8.255238086E-2,-1.322034448E-1,9.845867157E0,9.847100727E0
2.365797247E0,1.016949639E-1,-1.609173268E-1,9.836296082E0,9.838137875E0
2.368311831E0,8.733802289E-2,-1.800599098E-1,9.841081619E0,9.843116221E0
2.370826466E0,7.776673883E-2,-1.657029688E-1,9.821938515E0,9.823643994E0
2.373341050E0,1.112662554E-1,-2.039881349E-1,9.826724052E0,9.829470837E0
2.375855685E0,9.690931439E-2,-1.800599098E-1,9.869794846E0,9.871912848E0
2.378370268E0,9.690931439E-2,-1.848455518E-1,9.812367439E0,9.814586800E0
2.380884852E0,1.208375469E-1,-2.039881349E-1,9.807581902E0,9.810447269E0
2.383399487E0,9.212367237E-2,-2.039881349E-1,9.812367439E0,9.814919903E0
2.385914070E0,1.256231815E-1,-1.848455518E-1,9.855438232E0,9.857971993E0
2.388428654E0,1.256231815E-1,-1.848455518E-1,9.836296082E0,9.838834772E0
2.390309279E0,9.212367237E-2,-1.609173268E-1,9.845867157E0,9.847612971E0
2.392823862E0,1.543370634E-1,-1.657029688E-1,9.850652695E0,9.853255092E0
2.395338445E0,1.112662554E-1,-2.183450609E-1,9.831509590E0,9.834563313E0
2.397853081E0,9.690931439E-2,-1.800599098E-1,9.774082184E0,9.776220922E0
2.400367664E0,1.160518974E-1,-1.752742529E-1,9.817152977E0,9.819403326E0
2.402882300E0,9.690931439E-2,-1.800599098E-1,9.845867157E0,9.847990306E0
2.405396883E0,1.112662554E-1,-1.752742529E-1,9.821938515E0,9.824132401E0
2.407911466E0,8.733802289E-2,-1.752742529E-1,9.817152977E0,9.819105945E0
2.410426102E0,1.016949639E-1,-1.992024779E-1,9.826724052E0,9.829269001E0
2.412940685E0,1.016949639E-1,-1.513460279E-1,9.836296082E0,9.837985977E0
2.415455320E0,9.212367237E-2,-1.752742529E-1,9.850652695E0,9.852642607E0
2.417969904E0,9.212367237E-2,-1.896311939E-1,9.836296082E0,9.838555146E0
2.419842143E0,1.016949639E-1,-1.704886109E-1,9.817152977E0,9.819159883E0
2.422356727E0,1.208375469E-1,-1.752742529E-1,9.845867157E0,9.848168502E0
2.424871310E0,1.160518974E-1,-1.752742529E-1,9.831509590E0,9.833756654E0
2.427385945E0,8.733802289E-2,-1.848455518E-1,9.855438232E0,9.857558448E0
2.429900529E0,6.819544733E-2,-1.704886109E-1,9.826724052E0,9.828439479E0
2.432415164E0,9.690931439E-2,-1.465603858E-1,9.821938515E0,9.823509940E0
2.434929747E0,9.690931439E-2,-1.704886109E-1,9.798010826E0,9.799973160E0
2.437444331E0,1.112662554E-1,-1.609173268E-1,9.807581902E0,9.809532982E0
2.439958966E0,9.690931439E-2,-1.800599098E-1,9.836296082E0,9.838421296E0
2.442473550E0,8.733802289E-2,-1.657029688E-1,9.802796364E0,9.804585762E0
2.444988185E0,8.255238086E-2,-1.465603858E-1,9.812367439E0,9.813809128E0
2.447502768E0,7.776673883E-2,-1.609173268E-1,9.774082184E0,9.775716065E0
2.449385789E0,7.776673883E-2,-1.657029688E-1,9.821938515E0,9.823643994E0
2.451900372E0,1.160518974E-1,-1.513460279E-1,9.826724052E0,9.828574630E0
2.454414956E0,1.016949639E-1,-1.704886109E-1,9.812367439E0,9.814375324E0
2.456929591E0,8.255238086E-2,-1.609173268E-1,9.821938515E0,9.823603487E0
2.459444175E0,1.160518974E-1,-1.657029688E-1,9.793225288E0,9.795314547E0
2.461958810E0,1.112662554E-1,-1.609173268E-1,9.826724052E0,9.828671333E0
2.464473393E0,9.212367237E-2,-1.752742529E-1,9.841081619E0,9.843073467E0
2.466987977E0,1.064806059E-1,-1.561316848E-1,9.817152977E0,9.818971830E0
2.469502612E0,1.256231815E-1,-1.561316848E-1,9.802796364E0,9.804844458E0
2.472017195E0,1.064806059E-1,-1.848455518E-1,9.817152977E0,9.819470381E0
2.474531831E0,1.016949639E-1,-1.752742529E-1,9.855438232E0,9.857521275E0
2.477046414E0,9.212367237E-2,-1.657029688E-1,9.841081619E0,9.842907684E0
2.478937820E0,1.064806059E-1,-1.992024779E-1,9.826724052E0,9.829319679E0
2.481452404E0,7.776673883E-2,-1.657029688E-1,9.836296082E0,9.837999072E0
2.483966987E0,1.064806059E-1,-1.752742529E-1,9.884152412E0,9.886279790E0
2.486481622E0,1.016949639E-1,-1.800599098E-1,9.817152977E0,9.819330731E0
2.488996206E0,1.160518974E-1,-1.752742529E-1,9.826724052E0,9.828972210E0
2.491510841E0,1.304088384E-1,-1.657029688E-1,9.802796364E0,9.805064023E0
2.494025425E0,8.255238086E-2,-1.992024779E-1,9.841081619E0,9.843443704E0
2.496540008E0,9.212367237E-2,-1.992024779E-1,9.836296082E0,9.838744280E0
2.499054643E0,9.212367237E-2,-1.944168359E-1,9.855438232E0,9.857786132E0
2.501569227E0,1.064806059E-1,-1.609173268E-1,9.860223770E0,9.862111605E0
2.504083862E0,1.064806059E-1,-1.752742529E-1,9.850652695E0,9.852787306E0
2.506598445E0,8.733802289E-2,-1.800599098E-1,9.821938515E0,9.823977081E0
2.508470529E0,7.298108935E-2,-1.561316848E-1,9.836296082E0,9.837805850E0
2.510985112E0,6.819544733E-2,-1.609173268E-1,9.812367439E0,9.813923770E0
2.513499695E0,1.160518974E-1,-1.896311939E-1,9.865009308E0,9.867514210E0
2.516014331E0,1.208375469E-1,-1.657029688E-1,9.865009308E0,9.867140813E0
2.518528914E0,1.112662554E-1,-1.609173268E-1,9.807581902E0,9.809532982E0
2.521043550E0,1.064806059E-1,-1.800599098E-1,9.826724052E0,9.828950366E0
2.523558133E0,8.255238086E-2,-1.848455518E-1,9.874580383E0,9.876655331E0
2.526072716E0,9.212367237E-2,-2.039881349E-1,9.783653259E0,9.786213212E0
2.528587352E0,1.160518974E-1,-1.800599098E-1,9.793225288E0,9.795567935E0
2.531101935E0,9.212367237E-2,-1.465603858E-1,9.850652695E0,9.852173630E0
2.533616570E0,9.690931439E-2,-1.609173268E-1,9.850652695E0,9.852443571E0
2.536131154E0,1.064806059E-1,-1.848455518E-1,9.826724052E0,9.829039200E0
2.538015789E0,8.733802289E-2,-1.752742529E-1,9.783653259E0,9.785612913E0
2.540530372E0,1.016949639E-1,-1.561316848E-1,9.807581902E0,9.809351748E0
2.543044956E0,9.690931439E-2,-1.896311939E-1,9.821938515E0,9.824246922E0
2.545559591E0,8.255238086E-2,-1.800599098E-1,9.812367439E0,9.814366573E0
2.548074175E0,1.016949639E-1,-1.513460279E-1,9.802796364E0,9.804492034E0
2.550588810E0,1.351944804E-1,-1.944168359E-1,9.836296082E0,9.839146104E0
2.553103393E0,1.016949639E-1,-1.800599098E-1,9.855438232E0,9.857607529E0
2.555617977E0,8.255238086E-2,-1.657029688E-1,9.798010826E0,9.799759615E0
2.558132612E0,1.256231815E-1,-1.704886109E-1,9.817152977E0,9.819436854E0
2.560647195E0,7.776673883E-2,-1.752742529E-1,9.845867157E0,9.847734196E0
2.563161831E0,9.690931439E-2,-1.465603858E-1,9.860223770E0,9.861789095E0
2.565676414E0,8.255238086E-2,-1.848455518E-1,9.836296082E0,9.838379103E0
2.567559435E0,9.690931439E-2,-1.848455518E-1,9.821938515E0,9.824155713E0
2.570074018E0,1.064806059E-1,-1.752742529E-1,9.841081619E0,9.843218306E0
2.572588602E0,1.016949639E-1,-1.848455518E-1,9.798010826E0,9.800281929E0
2.575103185E0,1.016949639E-1,-1.992024779E-1,9.850652695E0,9.853191463E0
2.577617820E0,8.733802289E-2,-1.800599098E-1,9.807581902E0,9.809623451E0
2.580132456E0,1.064806059E-1,-1.752742529E-1,9.812367439E0,9.814510377E0
2.582647039E0,8.733802289E-2,-1.704886109E-1,9.826724052E0,9.828590942E0
2.585161622E0,1.016949639E-1,-1.752742529E-1,9.821938515E0,9.824028660E0
2.587676258E0,1.160518974E-1,-1.896311939E-1,9.793225288E0,9.795748546E0
2.590190841E0,1.160518974E-1,-1.609173268E-1,9.826724052E0,9.828726674E0
2.592705477E0,9.690931439E-2,-1.752742529E-1,9.836296082E0,9.838334873E0
2.595220060E0,1.208375469E-1,-1.561316848E-1,9.817152977E0,9.819138017E0
2.597100216E0,1.016949639E-1,-1.752742529E-1,9.807581902E0,9.809675106E0
2.599614800E0,1.016949639E-1,-1.704886109E-1,9.841081619E0,9.843083646E0
2.602129383E0,1.016949639E-1,-1.800599098E-1,9.831509590E0,9.833684165E0
2.604644018E0,1.160518974E-1,-1.657029688E-1,9.860223770E0,9.862298835E0
2.607158602E0,1.160518974E-1,-1.848455518E-1,9.826724052E0,9.829147548E0
2.609673237E0,6.340979785E-2,-1.704886109E-1,9.855438232E0,9.857116714E0
2.612187820E0,1.160518974E-1,-1.704886109E-1,9.826724052E0,9.828888035E0
2.614702404E0,8.733802289E-2,-1.609173268E-1,9.826724052E0,9.828429575E0
2.617217039E0,6.340979785E-2,-1.657029688E-1,9.826724052E0,9.828325589E0
2.619731622E0,1.112662554E-1,-1.752742529E-1,9.845867157E0,9.848055712E0
2.622246258E0,1.112662554E-1,-1.992024779E-1,9.831509590E0,9.834156935E0
2.624760841E0,1.016949639E-1,-1.800599098E-1,9.845867157E0,9.848038562E0
2.626644279E0,7.298108935E-2,-1.704886109E-1,9.874580383E0,9.876321702E0
2.629158862E0,1.351944804E-1,-1.704886109E-1,9.788438797E0,9.790856857E0
2.631673445E0,1.112662554E-1,-1.848455518E-1,9.788438797E0,9.790816214E0
2.634188081E0,9.212367237E-2,-1.848455518E-1,9.845867157E0,9.848033038E0
2.636702664E0,1.064806059E-1,-1.944168359E-1,9.850652695E0,9.853146428E0
2.639217300E0,1.208375469E-1,-1.417747438E-1,9.817152977E0,9.818920224E0
2.641731883E0,1.256231815E-1,-1.800599098E-1,9.865009308E0,9.867452123E0
2.644246466E0,6.819544733E-2,-1.896311939E-1,9.850652695E0,9.852713795E0
2.646761102E0,1.064806059E-1,-1.800599098E-1,9.807581902E0,9.809812559E0
2.649275685E0,7.776673883E-2,-1.752742529E-1,9.807581902E0,9.809456228E0
2.651790320E0,1.160518974E-1,-1.944168359E-1,9.783653259E0,9.786272888E0
2.654304904E0,1.064806059E-1,-1.609173268E-1,9.860223770E0,9.862111605E0
2.656189122E0,1.016949639E-1,-1.609173268E-1,9.850652695E0,9.852491805E0
2.658703706E0,6.819544733E-2,-1.657029688E-1,9.793225288E0,9.794864452E0
2.661218289E0,9.690931439E-2,-1.752742529E-1,9.841081619E0,9.843119420E0
2.663732925E0,8.733802289E-2,-1.896311939E-1,9.836296082E0,9.838511499E0
2.666247508E0,1.112662554E-1,-2.135594189E-1,9.807581902E0,9.810537730E0
2.668762143E0,1.112662554E-1,-1.896311939E-1,9.802796364E0,9.805261685E0
2.671276675E0,7.776673883E-2,-1.513460279E-1,9.807581902E0,9.809057857E0
2.673791310E0,8.255238086E-2,-1.704886109E-1,9.783653259E0,9.785486823E0
2.676305945E0,1.256231815E-1,-1.609173268E-1,9.841081619E0,9.843198820E0
2.678820529E0,1.016949639E-1,-1.657029688E-1,9.821938515E0,9.823862556E0
2.681335164E0,1.064806059E-1,-2.039881349E-1,9.812367439E0,9.815065157E0
2.683849747E0,9.690931439E-2,-1.657029688E-1,9.845867157E0,9.847738266E0
2.685731206E0,1.304088384E-1,-2.039881349E-1,9.869794846E0,9.872763945E0
2.688245789E0,9.212367237E-2,-1.657029688E-1,9.807581902E0,9.809414203E0
2.690760372E0,1.160518974E-1,-1.609173268E-1,9.826724052E0,9.828726674E0
2.693275008E0,1.112662554E-1,-1.752742529E-1,9.812367439E0,9.814563465E0
2.695789591E0,1.160518974E-1,-1.752742529E-1,9.798010826E0,9.800265571E0
2.698304227E0,6.819544733E-2,-1.800599098E-1,9.826724052E0,9.828610166E0
2.700818810E0,7.776673883E-2,-1.800599098E-1,9.841081619E0,9.843035948E0
2.703333393E0,1.064806059E-1,-1.800599098E-1,9.807581902E0,9.809812559E0
2.705848029E0,1.064806059E-1,-1.944168359E-1,9.812367439E0,9.814870900E0
2.708362612E0,7.776673883E-2,-1.848455518E-1,9.831509590E0,9.833554615E0
2.710877247E0,1.064806059E-1,-1.896311939E-1,9.807581902E0,9.809992908E0
2.713391831E0,7.776673883E-2,-1.896311939E-1,9.821938515E0,9.824076742E0
2.715273810E0,9.212367237E-2,-1.896311939E-1,9.836296082E0,9.838555146E0
2.717788393E0,1.112662554E-1,-1.657029688E-1,9.788438797E0,9.790473519E0
2.720302977E0,9.212367237E-2,-1.752742529E-1,9.812367439E0,9.814365114E0
2.722817612E0,8.255238086E-2,-1.848455518E-1,9.831509590E0,9.833593626E0
2.725332195E0,9.212367237E-2,-1.657029688E-1,9.817152977E0,9.818983492E0
2.727846831E0,8.255238086E-2,-1.704886109E-1,9.826724052E0,9.828549581E0
2.730361414E0,9.212367237E-2,-1.944168359E-1,9.850652695E0,9.853001735E0
2.732875997E0,1.112662554E-1,-1.704886109E-1,9.793225288E0,9.795341142E0
2.735390633E0,1.256231815E-1,-1.800599098E-1,9.802796364E0,9.805254678E0
2.737905216E0,8.255238086E-2,-1.800599098E-1,9.845867157E0,9.847859490E0
2.740419852E0,9.690931439E-2,-1.561316848E-1,9.807581902E0,9.809303302E0
2.742934435E0,7.298108935E-2,-1.465603858E-1,9.826724052E0,9.828087901E0
2.744826518E0,1.399801224E-1,-1.609173268E-1,9.831509590E0,9.833822738E0
2.747341102E0,1.016949639E-1,-1.752742529E-1,9.759725571E0,9.761829037E0
2.749855685E0,9.690931439E-2,-1.800599098E-1,9.845867157E0,9.847990306E0
2.752370320E0,1.016949639E-1,-1.896311939E-1,9.812367439E0,9.814726518E0
2.754884904E0,8.255238086E-2,-2.039881349E-1,9.807581902E0,9.810050398E0
2.757399539E0,1.016949639E-1,-1.657029688E-1,9.845867157E0,9.847786524E0
2.759914122E0,1.016949639E-1,-1.704886109E-1,9.821938515E0,9.823944443E0
2.762428706E0,8.733802289E-2,-1.657029688E-1,9.831509590E0,9.833293763E0
2.764943341E0,5.862415582E-2,-1.609173268E-1,9.826724052E0,9.828216358E0
2.767457925E0,8.255238086E-2,-1.752742529E-1,9.817152977E0,9.819064545E0
2.769972560E0,8.255238086E-2,-1.896311939E-1,9.836296082E0,9.838470180E0
2.772487143E0,4.905286431E-2,-1.992024779E-1,9.831509590E0,9.833649812E0
2.774365477E0,7.776673883E-2,-1.752742529E-1,9.850652695E0,9.852518827E0
2.776880112E0,1.016949639E-1,-1.800599098E-1,9.841081619E0,9.843254080E0
2.779394695E0,1.208375469E-1,-1.896311939E-1,9.802796364E0,9.805374967E0
2.781909331E0,1.304088384E-1,-1.082752272E-1,9.807581902E0,9.809046475E0
2.784423914E0,6.819544733E-2,-1.848455518E-1,9.836296082E0,9.838269111E0
2.786938550E0,9.212367237E-2,-1.944168359E-1,9.807581902E0,9.809941255E0
2.789453133E0,8.733802289E-2,-1.609173268E-1,9.831509590E0,9.833214283E0
2.791967716E0,9.212367237E-2,-1.657029688E-1,9.841081619E0,9.842907684E0
2.794482352E0,1.016949639E-1,-1.752742529E-1,9.793225288E0,9.795321561E0
2.796996935E0,1.160518974E-1,-1.752742529E-1,9.788438797E0,9.790695746E0
2.799511570E0,1.208375469E-1,-1.609173268E-1,9.831509590E0,9.833568880E0
2.802026154E0,7.776673883E-2,-1.896311939E-1,9.836296082E0,9.838431189E0
2.803905789E0,8.733802289E-2,-1.992024779E-1,9.831509590E0,9.833915313E0
2.806420372E0,7.776673883E-2,-1.944168359E-1,9.831509590E0,9.833739187E0
2.808934956E0,1.112662554E-1,-1.848455518E-1,9.869794846E0,9.872152671E0
2.811449591E0,8.255238086E-2,-1.513460279E-1,9.802796364E0,9.804312167E0
2.813964175E0,9.690931439E-2,-1.513460279E-1,9.817152977E0,9.818797768E0
2.816478810E0,1.208375469E-1,-1.609173268E-1,9.836296082E0,9.838354370E0
2.818993393E0,8.255238086E-2,-1.800599098E-1,9.821938515E0,9.823935701E0
2.821507977E0,9.212367237E-2,-1.609173268E-1,9.817152977E0,9.818903897E0
2.824022612E0,1.112662554E-1,-1.704886109E-1,9.831509590E0,9.833617207E0
2.826537195E0,1.208375469E-1,-1.848455518E-1,9.841081619E0,9.843559165E0
2.829051831E0,1.160518974E-1,-1.513460279E-1,9.860223770E0,9.862068062E0
2.831566414E0,6.340979785E-2,-1.657029688E-1,9.826724052E0,9.828325589E0
2.833449643E0,1.016949639E-1,-1.704886109E-1,9.807581902E0,9.809590766E0
2.835964175E0,1.016949639E-1,-1.848455518E-1,9.850652695E0,9.852911664E0
2.838478810E0,9.212367237E-2,-1.800599098E-1,9.855438232E0,9.857513434E0
2.840993445E0,1.112662554E-1,-1.657029688E-1,9.802796364E0,9.804828107E0
2.843508029E0,1.016949639E-1,-1.609173268E-1,9.845867157E0,9.847707161E0
2.846022664E0,9.212367237E-2,-1.752742529E-1,9.821938515E0,9.823934244E0
2.848537247E0,7.298108935E-2,-1.800599098E-1,9.802796364E0,9.804721534E0
2.851051831E0,1.112662554E-1,-1.657029688E-1,9.855438232E0,9.857459125E0
2.853566466E0,1.112662554E-1,-1.704886109E-1,9.884152412E0,9.886248806E0
2.856081050E0,7.776673883E-2,-1.800599098E-1,9.788438797E0,9.790403634E0
2.858595685E0,8.733802289E-2,-1.800599098E-1,9.798010826E0,9.800054370E0
2.861110268E0,9.212367237E-2,-1.848455518E-1,9.812367439E0,9.814540713E0
2.862990581E0,9.212367237E-2,-1.657029688E-1,9.850652695E0,9.852476986E0
2.865505164E0,8.733802289E-2,-1.561316848E-1,9.874580383E0,9.876200827E0
2.868019747E0,1.016949639E-1,-1.800599098E-1,9.850652695E0,9.852823045E0
2.870534383E0,8.733802289E-2,-1.704886109E-1,9.826724052E0,9.828590942E0
2.873048966E0,1.112662554E-1,-1.800599098E-1,9.826724052E0,9.829003375E0
2.875563550E0,7.776673883E-2,-1.848455518E-1,9.826724052E0,9.828770073E0
2.878078185E0,9.212367237E-2,-1.752742529E-1,9.826724052E0,9.828718810E0
2.880592768E0,1.016949639E-1,-1.896311939E-1,9.836296082E0,9.838649423E0
2.883107404E0,8.733802289E-2,-1.896311939E-1,9.826724052E0,9.828941628E0
2.885621987E0,7.776673883E-2,-1.944168359E-1,9.817152977E0,9.819385833E0
2.888136622E0,9.690931439E-2,-1.896311939E-1,9.831509590E0,9.833815751E0
2.890651206E0,7.776673883E-2,-1.609173268E-1,9.836296082E0,9.837919630E0
2.892534435E0,8.733802289E-2,-1.417747438E-1,9.831509590E0,9.832919649E0
2.895049018E0,1.208375469E-1,-1.848455518E-1,9.865009308E0,9.867480845E0
2.897563602E0,1.016949639E-1,-1.752742529E-1,9.841081619E0,9.843167700E0
2.900078237E0,7.776673883E-2,-1.800599098E-1,9.802796364E0,9.804758324E0
2.902592820E0,1.016949639E-1,-2.039881349E-1,9.812367439E0,9.815014406E0
2.905107456E0,7.776673883E-2,-1.609173268E-1,9.826724052E0,9.828349183E0
2.907622039E0,9.212367237E-2,-1.465603858E-1,9.821938515E0,9.823463895E0
2.910136622E0,1.016949639E-1,-1.657029688E-1,9.821938515E0,9.823862556E0
2.912651258E0,9.212367237E-2,-1.752742529E-1,9.865009308E0,9.866996325E0
2.915165841E0,1.064806059E-1,-1.704886109E-1,9.821938515E0,9.823995148E0
2.917680477E0,8.733802289E-2,-1.657029688E-1,9.821938515E0,9.823724426E0
2.920195060E0,1.160518974E-1,-1.800599098E-1,9.807581902E0,9.809921119E0
2.922077716E0,1.112662554E-1,-1.848455518E-1,9.821938515E0,9.824307825E0
2.924592300E0,1.208375469E-1,-1.752742529E-1,9.836296082E0,9.838599666E0
2.927106883E0,9.690931439E-2,-1.704886109E-1,9.802796364E0,9.804757740E0
2.929621518E0,7.776673883E-2,-1.704886109E-1,9.798010826E0,9.799802558E0
2.932136102E0,1.112662554E-1,-1.704886109E-1,9.841081619E0,9.843187186E0
2.934650737E0,1.160518974E-1,-1.992024779E-1,9.831509590E0,9.834212246E0
2.937165320E0,9.212367237E-2,-1.752742529E-1,9.807581902E0,9.809580551E0
2.939679904E0,9.212367237E-2,-1.752742529E-1,9.802796364E0,9.804795989E0
2.942194539E0,1.112662554E-1,-1.657029688E-1,9.836296082E0,9.838320906E0
2.944709122E0,9.212367237E-2,-1.800599098E-1,9.865009308E0,9.867082496E0
2.947223758E0,9.690931439E-2,-1.800599098E-1,9.802796364E0,9.804928839E0
2.949738341E0,8.733802289E-2,-1.704886109E-1,9.802796364E0,9.804667809E0
2.951620425E0,9.690931439E-2,-2.039881349E-1,9.836296082E0,9.838888310E0
2.954135008E0,1.112662554E-1,-1.896311939E-1,9.841081619E0,9.843537352E0
2.956649591E0,9.690931439E-2,-1.561316848E-1,9.841081619E0,9.842797161E0
2.959164227E0,9.212367237E-2,-1.704886109E-1,9.821938515E0,9.823850026E0
2.961678810E0,8.255238086E-2,-1.561316848E-1,9.845867157E0,9.847451044E0
2.964193445E0,9.690931439E-2,-1.896311939E-1,9.860223770E0,9.862523217E0
2.966708029E0,1.160518974E-1,-1.465603858E-1,9.812367439E0,9.814148091E0
2.969222612E0,1.064806059E-1,-1.800599098E-1,9.802796364E0,9.805028110E0
2.971737247E0,1.112662554E-1,-1.896311939E-1,9.841081619E0,9.843537352E0
2.974251831E0,8.733802289E-2,-2.039881349E-1,9.807581902E0,9.810091837E0
2.976766466E0,8.255238086E-2,-1.657029688E-1,9.812367439E0,9.814113670E0
2.979281050E0,1.016949639E-1,-1.609173268E-1,9.869794846E0,9.871630389E0
2.981161518E0,1.016949639E-1,-2.183450609E-1,9.845867157E0,9.848812949E0
2.983676102E0,1.112662554E-1,-1.992024779E-1,9.778867722E0,9.781529314E0
2.986190685E0,1.447657645E-1,-1.944168359E-1,9.821938515E0,9.824929069E0
2.988705320E0,1.304088384E-1,-1.704886109E-1,9.812367439E0,9.814714850E0
2.991219904E0,1.399801224E-1,-1.657029688E-1,9.802796364E0,9.805195993E0
2.993734539E0,1.064806059E-1,-1.752742529E-1,9.874580383E0,9.876709823E0
2.996249122E0,1.160518974E-1,-1.944168359E-1,9.869794846E0,9.872391617E0
2.998763706E0,7.298108935E-2,-1.752742529E-1,9.821938515E0,9.823773383E0
3.001278341E0,5.383851007E-2,-1.513460279E-1,9.807581902E0,9.808897337E0
3.003792925E0,8.733802289E-2,-1.752742529E-1,9.826724052E0,9.828675119E0
3.006307560E0,7.298108935E-2,-1.992024779E-1,9.802796364E0,9.805091760E0
3.008822143E0,1.016949639E-1,-1.704886109E-1,9.855438232E0,9.857437344E0
3.010707247E0,1.112662554E-1,-1.561316848E-1,9.850652695E0,9.852518246E0
3.013221831E0,1.064806059E-1,-1.609173268E-1,9.826724052E0,9.828618321E0
3.015736414E0,7.298108935E-2,-1.704886109E-1,9.841081619E0,9.842828864E0
3.018251050E0,4.905286431E-2,-1.752742529E-1,9.869794846E0,9.871472916E0
3.020765633E0,6.819544733E-2,-1.657029688E-1,9.860223770E0,9.861851798E0
3.023280268E0,8.733802289E-2,-2.039881349E-1,9.836296082E0,9.838798692E0
3.025794852E0,1.112662554E-1,-2.087737769E-1,9.836296082E0,9.839140576E0
3.028309435E0,1.064806059E-1,-1.896311939E-1,9.826724052E0,9.829130364E0
3.030824070E0,1.256231815E-1,-1.800599098E-1,9.836296082E0,9.838746026E0
3.033338654E0,1.208375469E-1,-1.704886109E-1,9.841081619E0,9.843300032E0
3.035853289E0,1.208375469E-1,-1.752742529E-1,9.826724052E0,9.829029880E0
3.038367872E0,9.212367237E-2,-1.752742529E-1,9.831509590E0,9.833503377E0
3.040250529E0,1.112662554E-1,-1.513460279E-1,9.836296082E0,9.838089571E0
3.042765112E0,8.733802289E-2,-1.752742529E-1,9.831509590E0,9.833459707E0
3.045279695E0,1.208375469E-1,-1.800599098E-1,9.821938515E0,9.824332011E0
3.047794331E0,1.399801224E-1,-1.944168359E-1,9.821938515E0,9.824859720E0
3.050308914E0,1.256231815E-1,-1.704886109E-1,9.807581902E0,9.809868007E0
3.052823550E0,1.208375469E-1,-1.848455518E-1,9.821938515E0,9.824420888E0
3.055338133E0,1.208375469E-1,-2.039881349E-1,9.807581902E0,9.810447269E0
3.057852716E0,1.304088384E-1,-1.465603858E-1,9.802796364E0,9.804759200E0
3.060367352E0,9.212367237E-2,-1.704886109E-1,9.812367439E0,9.814280814E0
3.062881935E0,1.064806059E-1,-1.848455518E-1,9.836296082E0,9.838608977E0
3.065396570E0,8.255238086E-2,-1.465603858E-1,9.817152977E0,9.818593963E0
3.067911154E0,8.255238086E-2,-1.896311939E-1,9.821938515E0,9.824115791E0
3.069792091E0,7.776673883E-2,-1.896311939E-1,9.812367439E0,9.814507752E0
3.072306675E0,1.160518974E-1,-1.609173268E-1,9.793225288E0,9.795234759E0
3.074821258E0,1.256231815E-1,-1.657029688E-1,9.774082184E0,9.776293837E0
3.077335893E0,1.016949639E-1,-1.848455518E-1,9.774082184E0,9.776358846E0
3.079850477E0,9.690931439E-2,-1.800599098E-1,9.841081619E0,9.843205800E0
3.082365112E0,9.212367237E-2,-1.369891018E-1,9.812367439E0,9.813756037E0
3.084879695E0,1.064806059E-1,-1.609173268E-1,9.826724052E0,9.828618321E0
3.087394279E0,8.255238086E-2,-1.896311939E-1,9.841081619E0,9.843254661E0
3.089908914E0,1.064806059E-1,-1.657029688E-1,9.845867157E0,9.847837106E0
3.092423497E0,9.212367237E-2,-1.369891018E-1,9.850652695E0,9.852035896E0
3.094938133E0,1.160518974E-1,-1.704886109E-1,9.831509590E0,9.833672520E0
3.097452716E0,1.112662554E-1,-1.848455518E-1,9.841081619E0,9.843446322E0
3.099337247E0,1.016949639E-1,-1.896311939E-1,9.826724052E0,9.829079685E0
3.101851831E0,1.160518974E-1,-1.896311939E-1,9.817152977E0,9.819670086E0
3.104366414E0,1.112662554E-1,-2.039881349E-1,9.836296082E0,9.839040194E0
3.106881050E0,9.690931439E-2,-1.513460279E-1,9.841081619E0,9.842722412E0
3.109395633E0,8.255238086E-2,-1.657029688E-1,9.812367439E0,9.814113670E0
3.111910268E0,1.160518974E-1,-1.800599098E-1,9.826724052E0,9.829058715E0
3.114424852E0,7.776673883E-2,-1.513460279E-1,9.836296082E0,9.837767729E0
3.116939435E0,7.776673883E-2,-1.752742529E-1,9.812367439E0,9.814240852E0
3.119454070E0,6.819544733E-2,-1.944168359E-1,9.841081619E0,9.843238083E0
3.121968654E0,8.255238086E-2,-1.752742529E-1,9.879366875E0,9.881266407E0
3.124483289E0,8.733802289E-2,-1.752742529E-1,9.826724052E0,9.828675119E0
3.126997872E0,1.016949639E-1,-1.848455518E-1,9.802796364E0,9.805066358E0
3.128877872E0,9.212367237E-2,-1.704886109E-1,9.845867157E0,9.847774023E0
3.131392456E0,1.064806059E-1,-1.704886109E-1,9.850652695E0,9.852703334E0
3.133907039E0,7.776673883E-2,-1.657029688E-1,9.836296082E0,9.837999072E0
3.136421675E0,8.255238086E-2,-1.800599098E-1,9.807581902E0,9.809582011E0
3.138936258E0,9.212367237E-2,-1.944168359E-1,9.845867157E0,9.848217339E0
3.141450893E0,6.819544733E-2,-1.800599098E-1,9.793225288E0,9.795117852E0
3.143965477E0,8.255238086E-2,-1.704886109E-1,9.788438797E0,9.790271464E0
3.146480060E0,8.733802289E-2,-1.657029688E-1,9.831509590E0,9.833293763E0
3.148994695E0,1.256231815E-1,-1.752742529E-1,9.817152977E0,9.819521110E0
3.151509279E0,1.016949639E-1,-1.561316848E-1,9.798010826E0,9.799782402E0
3.154023914E0,1.399801224E-1,-1.561316848E-1,9.826724052E0,9.828961142E0
3.156538497E0,8.255238086E-2,-1.704886109E-1,9.836296082E0,9.838119834E0
3.158421987E0,9.212367237E-2,-1.848455518E-1,9.788438797E0,9.790617383E0
3.160936570E0,9.690931439E-2,-1.800599098E-1,9.798010826E0,9.800144343E0
3.163451154E0,1.016949639E-1,-1.944168359E-1,9.812367439E0,9.814820148E0
3.165965789E0,9.690931439E-2,-1.992024779E-1,9.831509590E0,9.834004976E0
3.168480372E0,9.690931439E-2,-1.561316848E-1,9.860223770E0,9.861935982E0
3.170995008E0,1.064806059E-1,-1.609173268E-1,9.836296082E0,9.838188508E0
3.173509591E0,9.212367237E-2,-1.513460279E-1,9.831509590E0,9.833105980E0
3.176024175E0,6.819544733E-2,-1.657029688E-1,9.812367439E0,9.814003406E0
3.178538810E0,5.383851007E-2,-1.657029688E-1,9.821938515E0,9.823483712E0
3.181053393E0,9.690931439E-2,-1.561316848E-1,9.845867157E0,9.847581865E0
3.183568029E0,8.733802289E-2,-1.896311939E-1,9.841081619E0,9.843295960E0
3.186082612E0,8.255238086E-2,-1.896311939E-1,9.817152977E0,9.819331314E0
3.187965477E0,7.298108935E-2,-1.704886109E-1,9.802796364E0,9.804550431E0
3.190480060E0,8.733802289E-2,-1.513460279E-1,9.845867157E0,9.847417612E0
3.192994643E0,1.064806059E-1,-1.417747438E-1,9.802796364E0,9.804399765E0
3.195509279E0,8.733802289E-2,-1.369891018E-1,9.807581902E0,9.808927398E0
3.198023862E0,1.160518974E-1,-1.848455518E-1,9.798010826E0,9.800441422E0
3.200538497E0,9.690931439E-2,-2.039881349E-1,9.826724052E0,9.829318805E0
3.203053081E0,7.776673883E-2,-1.417747438E-1,9.850652695E0,9.851979814E0
3.205567664E0,1.543370634E-1,-1.848455518E-1,9.836296082E0,9.839243284E0
3.208082300E0,1.112662554E-1,-1.944168359E-1,9.817152977E0,9.819708278E0
3.210596883E0,8.733802289E-2,-1.896311939E-1,9.812367439E0,9.814588258E0
3.213111518E0,9.212367237E-2,-1.896311939E-1,9.826724052E0,9.828985317E0
3.215626102E0,5.862415582E-2,-1.944168359E-1,9.821938515E0,9.824037402E0
3.217507612E0,9.212367237E-2,-2.039881349E-1,9.812367439E0,9.814919903E0
3.220022195E0,9.690931439E-2,-1.704886109E-1,9.807581902E0,9.809542320E0
3.222536779E0,1.160518974E-1,-1.896311939E-1,9.812367439E0,9.814885776E0
3.225051414E0,9.212367237E-2,-2.135594189E-1,9.807581902E0,9.810339299E0
3.227565997E0,8.733802289E-2,-1.704886109E-1,9.826724052E0,9.828590942E0
3.230080633E0,8.255238086E-2,-1.896311939E-1,9.850652695E0,9.852823626E0
3.232595216E0,8.255238086E-2,-1.609173268E-1,9.802796364E0,9.804464587E0
3.235109800E0,9.690931439E-2,-1.752742529E-1,9.821938515E0,9.823980286E0
3.237624435E0,1.304088384E-1,-1.800599098E-1,9.831509590E0,9.834023025E0
3.240139018E0,8.255238086E-2,-1.944168359E-1,9.821938515E0,9.824209331E0
3.242653654E0,9.212367237E-2,-2.039881349E-1,9.826724052E0,9.829272788E0
3.245168237E0,1.064806059E-1,-1.896311939E-1,9.783653259E0,9.786070162E0
3.247049852E0,1.016949639E-1,-2.039881349E-1,9.850652695E0,9.853289376E0
3.249564435E0,8.255238086E-2,-1.752742529E-1,9.879366875E0,9.881266407E0
3.252079018E0,7.776673883E-2,-1.800599098E-1,9.860223770E0,9.862174306E0
3.254593654E0,9.690931439E-2,-1.800599098E-1,9.855438232E0,9.857559320E0
3.257108237E0,1.016949639E-1,-2.039881349E-1,9.845867157E0,9.848505120E0
3.259622872E0,9.690931439E-2,-1.465603858E-1,9.865009308E0,9.866573874E0
3.262137456E0,1.112662554E-1,-1.752742529E-1,9.865009308E0,9.867193618E0
3.264652039E0,8.733802289E-2,-1.944168359E-1,9.821938515E0,9.824250711E0
3.267166675E0,1.016949639E-1,-1.800599098E-1,9.826724052E0,9.828899686E0
3.269681258E0,5.862415582E-2,-1.752742529E-1,9.879366875E0,9.881095471E0
3.272195841E0,7.776673883E-2,-1.465603858E-1,9.860223770E0,9.861619563E0
3.274710477E0,1.160518974E-1,-1.465603858E-1,9.845867157E0,9.847641751E0
3.276602195E0,9.212367237E-2,-1.704886109E-1,9.821938515E0,9.823850026E0
3.279116779E0,1.112662554E-1,-1.944168359E-1,9.865009308E0,9.867552216E0
3.281631362E0,9.690931439E-2,-1.704886109E-1,9.855438232E0,9.857389134E0
3.284145997E0,1.016949639E-1,-1.226321608E-1,9.865009308E0,9.866295615E0
3.286660581E0,1.112662554E-1,-1.513460279E-1,9.836296082E0,9.838089571E0
3.289175216E0,9.212367237E-2,-1.848455518E-1,9.812367439E0,9.814540713E0
3.291689800E0,5.862415582E-2,-1.752742529E-1,9.836296082E0,9.838032245E0
3.294204383E0,6.819544733E-2,-1.704886109E-1,9.841081619E0,9.842794543E0
3.296719018E0,6.340979785E-2,-1.704886109E-1,9.826724052E0,9.828407438E0
3.299233602E0,1.064806059E-1,-1.848455518E-1,9.812367439E0,9.814685974E0
3.301748237E0,1.016949639E-1,-1.704886109E-1,9.836296082E0,9.838299082E0
3.304262820E0,6.819544733E-2,-1.944168359E-1,9.845867157E0,9.848022573E0
3.306138393E0,7.776673883E-2,-1.561316848E-1,9.826724052E0,9.828271993E0
3.308652977E0,1.064806059E-1,-1.657029688E-1,9.831509590E0,9.833482415E0
3.311167560E0,1.256231815E-1,-1.417747438E-1,9.812367439E0,9.814195638E0
3.313682195E0,9.690931439E-2,-1.465603858E-1,9.812367439E0,9.813940397E0
3.316196779E0,1.256231815E-1,-1.992024779E-1,9.826724052E0,9.829545687E0
3.318711414E0,1.064806059E-1,-1.657029688E-1,9.817152977E0,9.819128687E0
3.321225997E0,1.160518974E-1,-1.657029688E-1,9.831509590E0,9.833590714E0
3.323740581E0,1.112662554E-1,-1.609173268E-1,9.836296082E0,9.838241467E0
3.326255216E0,8.733802289E-2,-1.704886109E-1,9.836296082E0,9.838161154E0
3.328769800E0,6.340979785E-2,-2.039881349E-1,9.841081619E0,9.843399789E0
3.331284435E0,9.212367237E-2,-1.944168359E-1,9.817152977E0,9.819510031E0
3.333799018E0,1.160518974E-1,-1.704886109E-1,9.845867157E0,9.848026933E0
3.335682143E0,1.112662554E-1,-1.992024779E-1,9.860223770E0,9.862863408E0
3.338196727E0,9.212367237E-2,-1.513460279E-1,9.817152977E0,9.818751701E0
3.340711310E0,1.399801224E-1,-1.848455518E-1,9.788438797E0,9.791184627E0
3.343225945E0,1.734796464E-1,-1.609173268E-1,9.831509590E0,9.834356634E0
3.345740529E0,1.639083475E-1,-1.369891018E-1,9.798010826E0,9.800339183E0
3.348255164E0,1.256231815E-1,-1.417747438E-1,9.788438797E0,9.790271464E0
3.350769747E0,1.064806059E-1,-1.944168359E-1,9.836296082E0,9.838793454E0
3.353284331E0,1.112662554E-1,-1.896311939E-1,9.764511108E0,9.766986094E0
3.355798966E0,1.064806059E-1,-1.896311939E-1,9.807581902E0,9.809992908E0
3.358313550E0,8.733802289E-2,-1.752742529E-1,9.769296646E0,9.771259180E0
3.360828185E0,7.298108935E-2,-1.896311939E-1,9.826724052E0,9.828824540E0
3.363342768E0,4.426721856E-2,-2.135594189E-1,9.855438232E0,9.857851184E0
3.365225268E0,9.212367237E-2,-1.944168359E-1,9.821938515E0,9.824294421E0
3.367739852E0,6.819544733E-2,-2.087737769E-1,9.831509590E0,9.833962473E0
3.370254435E0,7.298108935E-2,-2.087737769E-1,9.821938515E0,9.824428172E0
3.372769070E0,4.905286431E-2,-1.992024779E-1,9.865009308E0,9.867142264E0
3.375283654E0,5.383851007E-2,-1.896311939E-1,9.884152412E0,9.886117918E0
3.377798289E0,6.819544733E-2,-1.944168359E-1,9.845867157E0,9.848022573E0
3.380312872E0,6.340979785E-2,-2.039881349E-1,9.874580383E0,9.876890690E0
3.382827456E0,8.733802289E-2,-1.944168359E-1,9.807581902E0,9.809897481E0
3.385342091E0,1.016949639E-1,-1.752742529E-1,9.836296082E0,9.838383177E0
3.387856675E0,9.690931439E-2,-1.848455518E-1,9.855438232E0,9.857647896E0
3.390371310E0,1.495514214E-1,-1.848455518E-1,9.817152977E0,9.820031878E0
3.392885893E0,1.351944804E-1,-1.657029688E-1,9.845867157E0,9.848189432E0
3.394766310E0,1.256231815E-1,-1.752742529E-1,9.807581902E0,9.809952345E0
3.397280893E0,1.447657645E-1,-1.226321608E-1,9.802796364E0,9.804632187E0
3.399795477E0,1.495514214E-1,-1.465603858E-1,9.798010826E0,9.800248044E0
3.402310112E0,1.112662554E-1,-1.657029688E-1,9.802796364E0,9.804828107E0
3.404824695E0,1.447657645E-1,-1.800599098E-1,9.807581902E0,9.810302822E0
3.407339331E0,1.543370634E-1,-1.896311939E-1,9.817152977E0,9.820197172E0
3.409853914E0,9.690931439E-2,-1.561316848E-1,9.802796364E0,9.804518605E0
3.412368497E0,1.112662554E-1,-1.561316848E-1,9.793225288E0,9.795101778E0
3.414883133E0,1.399801224E-1,-1.609173268E-1,9.826724052E0,9.829038326E0
3.417397716E0,1.160518974E-1,-1.657029688E-1,9.826724052E0,9.828806190E0
3.419912352E0,9.212367237E-2,-1.657029688E-1,9.783653259E0,9.785490041E0
3.422426935E0,8.733802289E-2,-1.800599098E-1,9.831509590E0,9.833546172E0
3.424319591E0,6.340979785E-2,-1.752742529E-1,9.821938515E0,9.823706941E0
3.426834122E0,3.948157281E-2,-1.752742529E-1,9.841081619E0,9.842721539E0
3.429348758E0,7.298108935E-2,-1.561316848E-1,9.807581902E0,9.809096090E0
3.431863393E0,5.862415582E-2,-1.561316848E-1,9.831509590E0,9.832924017E0
3.434377977E0,5.383851007E-2,-1.513460279E-1,9.826724052E0,9.828036925E0
3.436892612E0,4.426721856E-2,-1.609173268E-1,9.826724052E0,9.828141207E0
3.439407195E0,6.340979785E-2,-1.609173268E-1,9.826724052E0,9.828246069E0
3.441921779E0,8.255238086E-2,-1.609173268E-1,9.821938515E0,9.823603487E0
3.444436414E0,1.160518974E-1,-1.896311939E-1,9.793225288E0,9.795748546E0
3.446950997E0,8.733802289E-2,-1.657029688E-1,9.817152977E0,9.818939758E0
3.449465633E0,1.208375469E-1,-1.800599098E-1,9.802796364E0,9.805194533E0
3.451980216E0,1.112662554E-1,-1.752742529E-1,9.798010826E0,9.800210069E0
3.453861570E0,1.160518974E-1,-1.944168359E-1,9.841081619E0,9.843685965E0
3.456376154E0,1.304088384E-1,-1.752742529E-1,9.841081619E0,9.843506233E0
3.458890737E0,7.298108935E-2,-1.513460279E-1,9.826724052E0,9.828160431E0
3.461405372E0,1.447657645E-1,-1.657029688E-1,9.802796364E0,9.805265481E0
3.463919956E0,1.447657645E-1,-1.848455518E-1,9.836296082E0,9.839097805E0
3.466434539E0,1.591227055E-1,-1.417747438E-1,9.845867157E0,9.848173444E0
3.468949175E0,1.064806059E-1,-1.465603858E-1,9.826724052E0,9.828393748E0
3.471463758E0,8.255238086E-2,-1.848455518E-1,9.836296082E0,9.838379103E0
3.473978341E0,1.064806059E-1,-1.992024779E-1,9.865009308E0,9.867594864E0
3.476492977E0,1.112662554E-1,-1.704886109E-1,9.841081619E0,9.843187186E0
3.479007560E0,8.255238086E-2,-1.800599098E-1,9.855438232E0,9.857428631E0
3.481522195E0,8.255238086E-2,-1.896311939E-1,9.860223770E0,9.862392594E0
3.483407820E0,7.298108935E-2,-1.704886109E-1,9.865009308E0,9.866752315E0
3.485922404E0,4.905286431E-2,-1.657029688E-1,9.869794846E0,9.871307611E0
3.488436987E0,4.426721856E-2,-1.561316848E-1,9.888937950E0,9.890269484E0
3.490951622E0,7.298108935E-2,-1.896311939E-1,9.874580383E0,9.876670693E0
3.493466206E0,4.905286431E-2,-1.992024779E-1,9.865009308E0,9.867142264E0
3.495980841E0,3.948157281E-2,-1.513460279E-1,9.860223770E0,9.861464253E0
3.498495425E0,4.905286431E-2,-1.800599098E-1,9.850652695E0,9.852420325E0
3.501010008E0,6.340979785E-2,-2.039881349E-1,9.865009308E0,9.867321856E0
3.503524643E0,8.733802289E-2,-1.657029688E-1,9.836296082E0,9.838079386E0
3.506039227E0,9.212367237E-2,-1.992024779E-1,9.869794846E0,9.872234736E0
3.508553862E0,1.064806059E-1,-2.135594189E-1,9.841081619E0,9.843974461E0
3.511068445E0,1.256231815E-1,-1.992024779E-1,9.821938515E0,9.824761524E0
3.512951050E0,1.447657645E-1,-1.657029688E-1,9.855438232E0,9.857894164E0
3.515465633E0,1.256231815E-1,-1.848455518E-1,9.855438232E0,9.857971993E0
3.517980216E0,1.208375469E-1,-1.704886109E-1,9.850652695E0,9.852868952E0
3.520494852E0,1.256231815E-1,-1.896311939E-1,9.855438232E0,9.858062889E0
3.523009435E0,1.160518974E-1,-1.752742529E-1,9.826724052E0,9.828972210E0
3.525524070E0,8.255238086E-2,-1.848455518E-1,9.826724052E0,9.828809103E0
3.528038654E0,1.256231815E-1,-1.896311939E-1,9.821938515E0,9.824572121E0
3.530553237E0,1.256231815E-1,-1.561316848E-1,9.812367439E0,9.814413536E0
3.533067872E0,1.208375469E-1,-1.704886109E-1,9.802796364E0,9.805023439E0
3.535582456E0,7.298108935E-2,-1.848455518E-1,9.812367439E0,9.814379699E0
3.538097091E0,1.160518974E-1,-1.800599098E-1,9.826724052E0,9.829058715E0
3.540611675E0,7.776673883E-2,-1.752742529E-1,9.826724052E0,9.828594728E0
3.542480841E0,4.905286431E-2,-1.657029688E-1,9.802796364E0,9.804319467E0
3.544995372E0,7.298108935E-2,-1.848455518E-1,9.850652695E0,9.852657135E0
3.547510008E0,7.298108935E-2,-1.800599098E-1,9.821938515E0,9.823859934E0
3.550024643E0,7.298108935E-2,-1.704886109E-1,9.836296082E0,9.838044176E0
3.552539227E0,9.690931439E-2,-1.848455518E-1,9.860223770E0,9.862432362E0
3.555053862E0,9.212367237E-2,-1.465603858E-1,9.841081619E0,9.842604033E0
3.557568445E0,8.255238086E-2,-1.609173268E-1,9.860223770E0,9.861882279E0
3.560083029E0,8.255238086E-2,-1.657029688E-1,9.841081619E0,9.842822756E0
3.562597664E0,6.340979785E-2,-1.704886109E-1,9.869794846E0,9.871470886E0
3.565112247E0,7.776673883E-2,-1.704886109E-1,9.841081619E0,9.842865511E0
3.567626883E0,1.208375469E-1,-1.896311939E-1,9.850652695E0,9.853218774E0
3.570141466E0,1.208375469E-1,-1.848455518E-1,9.855438232E0,9.857912170E0
3.572024122E0,1.208375469E-1,-1.848455518E-1,9.821938515E0,9.824420888E0
3.574538654E0,1.399801224E-1,-1.800599098E-1,9.821938515E0,9.824586108E0
3.577053289E0,1.351944804E-1,-1.896311939E-1,9.821938515E0,9.824699167E0
3.579567925E0,1.639083475E-1,-1.609173268E-1,9.836296082E0,9.838977637E0
3.582082508E0,1.495514214E-1,-1.896311939E-1,9.836296082E0,9.839260451E0
3.584597143E0,1.112662554E-1,-1.752742529E-1,9.841081619E0,9.843271239E0
3.587111727E0,1.160518974E-1,-1.848455518E-1,9.845867157E0,9.848285942E0
3.589626310E0,1.447657645E-1,-1.561316848E-1,9.831509590E0,9.833814878E0
3.592140945E0,1.686939895E-1,-1.657029688E-1,9.778867722E0,9.781726282E0
3.594655529E0,1.064806059E-1,-1.944168359E-1,9.821938515E0,9.824439537E0
3.597170164E0,1.208375469E-1,-1.657029688E-1,9.821938515E0,9.824079365E0
3.599684747E0,1.399801224E-1,-1.513460279E-1,9.817152977E0,9.819317320E0
3.601568185E0,9.212367237E-2,-1.561316848E-1,9.783653259E0,9.785332645E0
3.604082768E0,7.776673883E-2,-1.896311939E-1,9.817152977E0,9.819292247E0
3.606597352E0,7.298108935E-2,-2.135594189E-1,9.821938515E0,9.824531035E0
3.609111987E0,6.340979785E-2,-1.752742529E-1,9.817152977E0,9.818922265E0
3.611626570E0,9.690931439E-2,-1.704886109E-1,9.826724052E0,9.828680653E0
3.614141206E0,9.212367237E-2,-1.944168359E-1,9.831509590E0,9.833863203E0
3.616655789E0,9.212367237E-2,-1.609173268E-1,9.817152977E0,9.818903897E0
3.619170372E0,7.776673883E-2,-1.417747438E-1,9.802796364E0,9.804129961E0
3.621685008E0,1.064806059E-1,-1.896311939E-1,9.788438797E0,9.790854518E0
3.624199591E0,8.255238086E-2,-1.322034448E-1,9.798010826E0,9.799250420E0
3.626714227E0,9.212367237E-2,-1.752742529E-1,9.798010826E0,9.800011428E0
3.629228810E0,1.016949639E-1,-1.992024779E-1,9.783653259E0,9.786209409E0
3.631110945E0,1.064806059E-1,-1.848455518E-1,9.802796364E0,9.805117161E0
3.633625529E0,8.733802289E-2,-1.944168359E-1,9.774082184E0,9.776405698E0
3.636140112E0,9.212367237E-2,-1.609173268E-1,9.793225288E0,9.794980485E0
3.638654747E0,1.016949639E-1,-2.135594189E-1,9.817152977E0,9.820002142E0
3.641169331E0,9.690931439E-2,-1.657029688E-1,9.812367439E0,9.814244935E0
3.643683966E0,9.690931439E-2,-1.752742529E-1,9.783653259E0,9.785703019E0
3.646198550E0,1.208375469E-1,-1.944168359E-1,9.798010826E0,9.800684454E0
3.648713133E0,1.351944804E-1,-1.561316848E-1,9.798010826E0,9.800187284E0
3.651227768E0,1.208375469E-1,-1.704886109E-1,9.821938515E0,9.824161250E0
3.653742352E0,1.112662554E-1,-1.561316848E-1,9.831509590E0,9.833378774E0
3.656256987E0,1.256231815E-1,-1.417747438E-1,9.831509590E0,9.833334230E0
3.658771570E0,1.112662554E-1,-1.465603858E-1,9.831509590E0,9.833231460E0
3.660655320E0,5.862415582E-2,-1.465603858E-1,9.850652695E0,9.851917339E0
3.663169904E0,4.905286431E-2,-1.609173268E-1,9.855438232E0,9.856873912E0
3.665684487E0,6.819544733E-2,-2.087737769E-1,9.860223770E0,9.862669512E0
3.668199122E0,1.016949639E-1,-1.657029688E-1,9.802796364E0,9.804724162E0
3.670713706E0,8.255238086E-2,-1.082752272E-1,9.788438797E0,9.789385706E0
3.673228341E0,8.733802289E-2,-1.561316848E-1,9.831509590E0,9.833137132E0
3.675742925E0,8.733802289E-2,-1.944168359E-1,9.845867157E0,9.848173735E0
3.678257508E0,8.733802289E-2,-2.231307179E-1,9.821938515E0,9.824860886E0
3.680772143E0,1.160518974E-1,-1.609173268E-1,9.845867157E0,9.847865886E0
3.683286727E0,1.112662554E-1,-1.369891018E-1,9.836296082E0,9.837879182E0
3.685801362E0,8.255238086E-2,-1.944168359E-1,9.841081619E0,9.843348020E0
3.688315945E0,1.112662554E-1,-1.896311939E-1,9.812367439E0,9.814830357E0
3.690211206E0,9.690931439E-2,-1.657029688E-1,9.845867157E0,9.847738266E0
3.692725841E0,1.112662554E-1,-1.944168359E-1,9.874580383E0,9.877120827E0
3.695240425E0,8.255238086E-2,-1.800599098E-1,9.869794846E0,9.871782350E0
3.697755060E0,6.819544733E-2,-1.896311939E-1,9.826724052E0,9.828790170E0
3.700269643E0,9.690931439E-2,-1.896311939E-1,9.802796364E0,9.805109278E0
3.702784279E0,9.690931439E-2,-2.039881349E-1,9.812367439E0,9.814965988E0
3.705298862E0,9.212367237E-2,-1.609173268E-1,9.826724052E0,9.828473267E0
3.707813445E0,1.016949639E-1,-1.704886109E-1,9.826724052E0,9.828729004E0
3.710328081E0,1.256231815E-1,-1.465603858E-1,9.812367439E0,9.814265938E0
3.712842664E0,1.304088384E-1,-1.848455518E-1,9.783653259E0,9.786268208E0
3.715357300E0,6.340979785E-2,-1.752742529E-1,9.778867722E0,9.780643935E0
3.717871883E0,1.304088384E-1,-1.752742529E-1,9.798010826E0,9.800446096E0
3.719738133E0,1.399801224E-1,-1.944168359E-1,9.802796364E0,9.805723272E0
3.722252716E0,6.340979785E-2,-2.231307179E-1,9.807581902E0,9.810324708E0
3.724767300E0,5.862415582E-2,-1.848455518E-1,9.821938515E0,9.823852648E0
3.727281935E0,8.733802289E-2,-1.752742529E-1,9.850652695E0,9.852599023E0
3.729796518E0,8.255238086E-2,-1.752742529E-1,9.836296082E0,9.838203930E0
3.732311154E0,8.255238086E-2,-1.609173268E-1,9.798010826E0,9.799679864E0
3.734825737E0,1.016949639E-1,-1.704886109E-1,9.817152977E0,9.819159883E0
3.737340320E0,1.112662554E-1,-1.657029688E-1,9.798010826E0,9.800043561E0
3.739854956E0,1.064806059E-1,-1.609173268E-1,9.826724052E0,9.828618321E0
3.742369539E0,8.733802289E-2,-1.657029688E-1,9.826724052E0,9.828509094E0
3.744884175E0,1.016949639E-1,-1.896311939E-1,9.869794846E0,9.872140201E0
3.747398758E0,1.064806059E-1,-1.657029688E-1,9.793225288E0,9.795205824E0
3.749283029E0,9.690931439E-2,-1.561316848E-1,9.793225288E0,9.794949212E0
3.751797612E0,8.733802289E-2,-1.657029688E-1,9.831509590E0,9.833293763E0
3.754312195E0,9.212367237E-2,-1.465603858E-1,9.817152977E0,9.818679101E0
3.756826831E0,9.212367237E-2,-1.513460279E-1,9.793225288E0,9.794827918E0
3.759341414E0,1.016949639E-1,-1.561316848E-1,9.817152977E0,9.818921099E0
3.761856050E0,1.160518974E-1,-1.848455518E-1,9.807581902E0,9.810010126E0
3.764370633E0,9.212367237E-2,-1.322034448E-1,9.841081619E0,9.842400721E0
3.766885216E0,9.690931439E-2,-1.369891018E-1,9.802796364E0,9.804232452E0
3.769399852E0,9.690931439E-2,-1.944168359E-1,9.826724052E0,9.829124830E0
3.771914435E0,6.819544733E-2,-1.944168359E-1,9.831509590E0,9.833668153E0
3.774429070E0,6.819544733E-2,-1.657029688E-1,9.850652695E0,9.852282304E0
3.776943654E0,9.212367237E-2,-1.609173268E-1,9.869794846E0,9.871536428E0
3.778829747E0,1.112662554E-1,-1.609173268E-1,9.821938515E0,9.823886744E0
3.781344331E0,1.112662554E-1,-1.800599098E-1,9.841081619E0,9.843357618E0
3.783858914E0,1.016949639E-1,-1.944168359E-1,9.855438232E0,9.857880225E0
3.786373550E0,1.256231815E-1,-1.561316848E-1,9.826724052E0,9.828767160E0
3.788888133E0,8.733802289E-2,-1.322034448E-1,9.812367439E0,9.813646644E0
3.791402768E0,1.351944804E-1,-1.704886109E-1,9.850652695E0,9.853055487E0
3.793917352E0,7.776673883E-2,-1.896311939E-1,9.817152977E0,9.819292247E0
3.796431935E0,7.776673883E-2,-1.657029688E-1,9.798010826E0,9.799720470E0
3.798946570E0,9.212367237E-2,-1.896311939E-1,9.855438232E0,9.857692910E0
3.801461154E0,9.690931439E-2,-1.800599098E-1,9.860223770E0,9.862343828E0
3.803975789E0,8.255238086E-2,-1.513460279E-1,9.841081619E0,9.842591526E0
3.806490372E0,9.690931439E-2,-1.896311939E-1,9.821938515E0,9.824246922E0
3.808370425E0,8.733802289E-2,-1.800599098E-1,9.841081619E0,9.843116221E0
3.810885008E0,7.776673883E-2,-1.704886109E-1,9.807581902E0,9.809371885E0
3.813399591E0,9.212367237E-2,-1.752742529E-1,9.812367439E0,9.814365114E0
3.815914227E0,1.064806059E-1,-1.800599098E-1,9.812367439E0,9.814597009E0
3.818428810E0,9.690931439E-2,-1.752742529E-1,9.821938515E0,9.823980286E0
3.820943445E0,8.733802289E-2,-1.657029688E-1,9.831509590E0,9.833293763E0
3.823458029E0,8.733802289E-2,-1.609173268E-1,9.793225288E0,9.794936644E0
3.825972612E0,8.255238086E-2,-1.992024779E-1,9.774082184E0,9.776460457E0
3.828487247E0,8.733802289E-2,-2.135594189E-1,9.802796364E0,9.805511313E0
3.831001831E0,1.208375469E-1,-1.609173268E-1,9.817152977E0,9.819215278E0
3.833516466E0,8.255238086E-2,-1.561316848E-1,9.845867157E0,9.847451044E0
3.836031050E0,1.016949639E-1,-1.848455518E-1,9.807581902E0,9.809850789E0
3.837913445E0,1.304088384E-1,-1.704886109E-1,9.778867722E0,9.781223172E0
3.840428029E0,1.064806059E-1,-1.609173268E-1,9.817152977E0,9.819049092E0
3.842942612E0,9.690931439E-2,-1.752742529E-1,9.860223770E0,9.862257616E0
3.845457247E0,1.016949639E-1,-2.135594189E-1,9.841081619E0,9.843923858E0
3.847971831E0,9.690931439E-2,-1.944168359E-1,9.807581902E0,9.809987364E0
3.850486466E0,9.690931439E-2,-1.465603858E-1,9.798010826E0,9.799586089E0
3.853001050E0,1.160518974E-1,-1.513460279E-1,9.807581902E0,9.809436091E0
3.855515633E0,1.160518974E-1,-1.848455518E-1,9.831509590E0,9.833931907E0
3.858030268E0,9.212367237E-2,-1.657029688E-1,9.841081619E0,9.842907684E0
3.860544852E0,9.690931439E-2,-1.752742529E-1,9.841081619E0,9.843119420E0
3.863059487E0,6.340979785E-2,-1.896311939E-1,9.817152977E0,9.819189038E0
3.865574070E0,9.212367237E-2,-1.848455518E-1,9.817152977E0,9.819325192E0
3.867458810E0,6.819544733E-2,-1.992024779E-1,9.802796364E0,9.805057307E0
3.869973393E0,6.819544733E-2,-1.800599098E-1,9.826724052E0,9.828610166E0
3.872487977E0,4.426721856E-2,-1.513460279E-1,9.821938515E0,9.823204233E0
3.875002612E0,7.776673883E-2,-1.465603858E-1,9.850652695E0,9.852049844E0
3.877517195E0,1.160518974E-1,-1.992024779E-1,9.869794846E0,9.872487020E0
3.880031831E0,9.690931439E-2,-1.848455518E-1,9.845867157E0,9.848078968E0
3.882546414E0,8.733802289E-2,-1.513460279E-1,9.841081619E0,9.842632828E0
3.885060997E0,8.733802289E-2,-1.274178028E-1,9.831509590E0,9.832723125E0
3.887575633E0,1.208375469E-1,-1.513460279E-1,9.841081619E0,9.842987086E0
3.890090216E0,1.016949639E-1,-1.417747438E-1,9.836296082E0,9.837843389E0
3.892604852E0,9.212367237E-2,-1.657029688E-1,9.826724052E0,9.828552785E0
3.895119435E0,9.690931439E-2,-1.848455518E-1,9.826724052E0,9.828940172E0
3.896997612E0,1.016949639E-1,-1.800599098E-1,9.836296082E0,9.838469598E0
3.899512195E0,9.212367237E-2,-1.369891018E-1,9.812367439E0,9.813756037E0
3.902026779E0,1.016949639E-1,-1.417747438E-1,9.845867157E0,9.847412961E0
3.904541414E0,1.256231815E-1,-1.752742529E-1,9.817152977E0,9.819521110E0
3.907055997E0,1.399801224E-1,-1.944168359E-1,9.793225288E0,9.796155056E0
3.909570633E0,1.064806059E-1,-1.034895778E-1,9.845867157E0,9.846986762E0
3.912085216E0,7.298108935E-2,-1.657029688E-1,9.817152977E0,9.818822551E0
3.914599800E0,1.112662554E-1,-1.704886109E-1,9.807581902E0,9.809694659E0
3.917114435E0,1.064806059E-1,-1.561316848E-1,9.841081619E0,9.842896050E0
3.919629018E0,7.298108935E-2,-1.369891018E-1,9.817152977E0,9.818379949E0
3.922143654E0,7.776673883E-2,-1.561316848E-1,9.783653259E0,9.785208013E0
3.924658237E0,9.690931439E-2,-1.704886109E-1,9.831509590E0,9.833465239E0
3.926552143E0,1.208375469E-1,-1.752742529E-1,9.774082184E0,9.776400427E0
3.929066727E0,1.160518974E-1,-1.752742529E-1,9.793225288E0,9.795481134E0
3.931581310E0,7.776673883E-2,-1.657029688E-1,9.817152977E0,9.818859288E0
3.934095945E0,6.340979785E-2,-1.657029688E-1,9.802796364E0,9.804401809E0
3.936610529E0,8.255238086E-2,-1.417747438E-1,9.798010826E0,9.799384222E0
3.939125164E0,9.690931439E-2,-1.752742529E-1,9.850652695E0,9.852688516E0
3.941639747E0,1.256231815E-1,-1.800599098E-1,9.874580383E0,9.877020831E0
3.944154331E0,1.256231815E-1,-1.561316848E-1,9.812367439E0,9.814413536E0
3.946668966E0,9.212367237E-2,-1.896311939E-1,9.812367439E0,9.814632012E0
3.949183550E0,1.112662554E-1,-1.752742529E-1,9.807581902E0,9.809778998E0
3.951698185E0,1.064806059E-1,-1.992024779E-1,9.836296082E0,9.838889183E0
3.954212768E0,7.298108935E-2,-1.561316848E-1,9.831509590E0,9.833020094E0
3.956086362E0,1.304088384E-1,-1.752742529E-1,9.841081619E0,9.843506233E0
3.958600945E0,1.351944804E-1,-1.800599098E-1,9.793225288E0,9.795813426E0
3.961115529E0,9.690931439E-2,-1.657029688E-1,9.807581902E0,9.809460314E0
3.963630164E0,1.016949639E-1,-1.992024779E-1,9.802796364E0,9.805347523E0
3.966144747E0,1.351944804E-1,-1.800599098E-1,9.821938515E0,9.824519088E0
3.968659383E0,9.690931439E-2,-1.848455518E-1,9.831509590E0,9.833724631E0
3.971173966E0,8.733802289E-2,-1.704886109E-1,9.850652695E0,9.852515050E0
3.973688550E0,9.690931439E-2,-1.657029688E-1,9.836296082E0,9.838169011E0
3.976203185E0,1.112662554E-1,-1.896311939E-1,9.836296082E0,9.838753009E0
3.978717768E0,7.298108935E-2,-1.609173268E-1,9.831509590E0,9.833097246E0
3.981232404E0,7.298108935E-2,-1.704886109E-1,9.826724052E0,9.828473849E0
3.983746987E0,7.298108935E-2,-1.848455518E-1,9.793225288E0,9.795241481E0
3.985626570E0,1.016949639E-1,-1.896311939E-1,9.821938515E0,9.824295295E0
3.988141154E0,6.340979785E-2,-1.609173268E-1,9.831509590E0,9.833030866E0
3.990655737E0,5.383851007E-2,-1.609173268E-1,9.812367439E0,9.813834507E0
3.993170372E0,8.255238086E-2,-1.800599098E-1,9.802796364E0,9.804797449E0
3.995684956E0,7.776673883E-2,-1.561316848E-1,9.817152977E0,9.818702427E0
3.998199591E0,8.733802289E-2,-1.609173268E-1,9.798010826E0,9.799721346E0
4.000714175E0,9.212367237E-2,-1.609173268E-1,9.826724052E0,9.828473267E0
4.003228758E0,1.208375469E-1,-1.369891018E-1,9.821938515E0,9.823637000E0
4.005743393E0,9.212367237E-2,-1.465603858E-1,9.836296082E0,9.837819236E0
4.008257977E0,8.255238086E-2,-1.609173268E-1,9.855438232E0,9.857097546E0
4.010772612E0,1.304088384E-1,-1.704886109E-1,9.812367439E0,9.814714850E0
4.013287195E0,1.208375469E-1,-1.992024779E-1,9.845867157E0,9.848623427E0
4.015175737E0,9.690931439E-2,-1.704886109E-1,9.893723488E0,9.895666841E0
4.017690320E0,1.591227055E-1,-1.896311939E-1,9.812367439E0,9.815489534E0
4.020204904E0,1.112662554E-1,-1.704886109E-1,9.807581902E0,9.809694659E0
4.022719539E0,1.351944804E-1,-1.465603858E-1,9.817152977E0,9.819177668E0
4.025234122E0,1.160518974E-1,-1.800599098E-1,9.826724052E0,9.829058715E0
4.027748758E0,1.112662554E-1,-1.704886109E-1,9.826724052E0,9.828832695E0
4.030263341E0,1.016949639E-1,-1.609173268E-1,9.850652695E0,9.852491805E0
4.032777925E0,1.351944804E-1,-1.896311939E-1,9.845867157E0,9.848621102E0
4.035292560E0,1.112662554E-1,-1.513460279E-1,9.869794846E0,9.871582249E0
4.037807143E0,1.016949639E-1,-1.561316848E-1,9.845867157E0,9.847630123E0
4.040321779E0,9.690931439E-2,-1.657029688E-1,9.817152977E0,9.819029558E0
4.042836362E0,6.340979785E-2,-1.657029688E-1,9.836296082E0,9.837896060E0
